trialsTest.thisRepN,trialsTest.thisTrialN,trialsTest.thisN,trialsTest.thisIndex,text_instr.started,forms2test.started,nameTextBox.text,ageTextBox.text,genderTextBox.text,ImageFile1 ,ImageFile2,SintheticImageFile ,ImagesCategory,stimulus_1.started,stimulus_2.started,mouse.started,countdown_string.started,select_ai_synthetic_image.started,mouse.x,mouse.y,mouse.leftButton,mouse.midButton,mouse.rightButton,mouse.time,mouse.clicked_image,selectedImage,correctAns,decisionTime,chosen_image.started,nextButton.started,mouse_2.started,rating.response,mouse_2.x,mouse_2.y,mouse_2.leftButton,mouse_2.midButton,mouse_2.rightButton,mouse_2.time,mouse_2.clicked_name,participant,session,date,expName,psychopyVersion,frameRate,
,,,,12.441044299999703,,,,,,,,,,,,,,,,,,,,,,,,,,,,,,,,,,,665835,001,2023-06-06_17h39.07.329,scripted_test,2022.2.5,60.12440942753938,
,,,,,18.571220800000447,Jose da Silva,22,Male,,,,,,,,,,,,,,,,,,,,,,,,,,,,,,,665835,001,2023-06-06_17h39.07.329,scripted_test,2022.2.5,60.12440942753938,
0,0,0,0,,,,,,images\real\4_006.jpg,images\synthetic\4_006.jpg,images\synthetic\4_006.jpg,Houses (Exterior),41.850377200000366,41.850377200000366,0.05695919999925536,41.850377200000366,41.850377200000366,"[-0.08055555555555556, 0.28055555555555556]","[-0.38981481481481484, -0.14907407407407408]","[1, 1]","[0, 0]","[0, 0]","[0.0004073000000062166, 3.2098268999998254]",['images\\synthetic\\4_006.jpg'],images\synthetic\4_006.jpg,1,0.0004073000000062166,45.075565000001006,45.075565000001006,0.015561199999865494,3.0,"[0.004629629629629629, -0.027777777777777776]","[-0.2972222222222222, -0.3925925925925926]","[1, 1]","[0, 0]","[0, 0]","[3.3759642999993957, 4.5927246999999625]",['nextButton'],665835,001,2023-06-06_17h39.07.329,scripted_test,2022.2.5,60.12440942753938,
1,0,1,0,,,,,,images\real\4_010.png,images\synthetic\4_010.png,images\synthetic\4_010.png,Houses (Exterior),49.8054833999995,49.8054833999995,0.13569819999975152,49.8054833999995,49.8054833999995,[-0.12129629629629629],[-0.20925925925925926],[1],[0],[0],[5.6120422999993025],['images\\real\\4_010.png'],images\real\4_010.png,0,5.6120422999993025,55.49261780000052,55.49261780000052,0.0690708000001905,5.0,"[0.25462962962962965, 0.4824074074074074, 0.005555555555555556]","[-0.3074074074074074, -0.3055555555555556, -0.3712962962962963]","[1, 1, 1]","[0, 0, 0]","[0, 0, 0]","[4.057597099999839, 6.55651079999916, 7.543573799999649]",['nextButton'],665835,001,2023-06-06_17h39.07.329,scripted_test,2022.2.5,60.12440942753938,
2,0,2,0,,,,,,images\real\3_004.jpeg,images\synthetic\3_004.jpg,images\synthetic\3_004.jpg,Cars,63.074006400000144,63.074006400000144,0.03168340000047465,63.074006400000144,63.074006400000144,"[0.005555555555555556, -0.1175925925925926]","[-0.3712962962962963, -0.13240740740740742]","[1, 1]","[0, 0]","[0, 0]","[0.00028030000066792127, 5.7960617000007915]",['images\\real\\3_004.jpeg'],images\real\3_004.jpeg,0,0.00028030000066792127,68.90017389999957,68.90017389999957,0.028324200000497513,5.0,"[0.25277777777777777, 0.48703703703703705, -0.024074074074074074]","[-0.2962962962962963, -0.30925925925925923, -0.3907407407407407]","[1, 1, 1]","[0, 0, 0]","[0, 0, 0]","[3.082695799999783, 5.4977328999993915, 6.29806649999955]",['nextButton'],665835,001,2023-06-06_17h39.07.329,scripted_test,2022.2.5,60.12440942753938,
3,0,3,0,,,,,,images\real\1_005.jpeg,images\synthetic\1_005.png,images\synthetic\1_005.png,Animals,75.314855300001,75.314855300001,0.11163469999883091,75.314855300001,75.314855300001,[0.5259259259259259],[-0.24166666666666667],[1],[0],[0],[2.8696132999994006],['images\\synthetic\\1_005.png'],images\synthetic\1_005.png,1,2.8696132999994006,78.22037079999973,78.22037079999973,0.03542310000011639,3.0,"[-0.2574074074074074, -0.2574074074074074, -0.005555555555555556, -0.017592592592592594]","[-0.2814814814814815, -0.2814814814814815, -0.29907407407407405, -0.39537037037037037]","[1, 1, 1, 1]","[0, 0, 0, 0]","[0, 0, 0, 0]","[1.2916715999999724, 1.4080699999994977, 4.042041799999424, 5.0911854000005405]",['nextButton'],665835,001,2023-06-06_17h39.07.329,scripted_test,2022.2.5,60.12440942753938,
4,0,4,0,,,,,,images\synthetic\2_010.png,images\real\2_010.jpeg,images\synthetic\2_010.png,People,83.43834270000116,83.43834270000116,0.11703590000070108,83.43834270000116,83.43834270000116,[0.5203703703703704],[-0.2074074074074074],[1],[0],[0],[4.879789000000528],['images\\real\\2_010.jpeg'],images\real\2_010.jpeg,0,4.879789000000528,88.37531320000016,88.37531320000016,0.05627670000103535,5.0,"[0.5101851851851852, -0.011111111111111112]","[-0.3212962962962963, -0.3768518518518518]","[1, 1]","[0, 0]","[0, 0]","[0.8704825000004348, 1.6537337999998272]",['nextButton'],665835,001,2023-06-06_17h39.07.329,scripted_test,2022.2.5,60.12440942753938,
5,0,5,0,,,,,,images\synthetic\9_006.png,images\real\9_006.jpeg,images\synthetic\9_006.png,Sports,90.07968410000103,90.07968410000103,0.043005399998946814,90.07968410000103,90.07968410000103,"[-0.011111111111111112, -0.2462962962962963]","[-0.3768518518518518, -0.1037037037037037]","[1, 1]","[0, 0]","[0, 0]","[0.00032900000041991007, 7.389459899999565]",['images\\synthetic\\9_006.png'],images\synthetic\9_006.png,1,0.00032900000041991007,97.50469410000005,97.50469410000005,0.03728109999974549,2.0,"[-0.4898148148148148, -0.2518518518518518, -0.018518518518518517]","[-0.29907407407407405, -0.30092592592592593, -0.39444444444444443]","[1, 1, 1]","[0, 0, 0]","[0, 0, 0]","[1.2081223000004684, 3.2204192000008334, 3.8880241999995633]",['nextButton'],665835,001,2023-06-06_17h39.07.329,scripted_test,2022.2.5,60.12440942753938,
6,0,6,0,,,,,,images\synthetic\4_003.png,images\real\4_003.jpg,images\synthetic\4_003.png,Houses (Exterior),101.53449290000026,101.53449290000026,0.13313000000016473,101.53449290000026,101.53449290000026,[-0.24351851851851852],[-0.1425925925925926],[1],[0],[0],[9.214082499998767],['images\\synthetic\\4_003.png'],images\synthetic\4_003.png,1,9.214082499998767,110.78967430000012,110.78967430000012,0.04351689999930386,5.0,"[0.5074074074074074, -0.022222222222222223]","[-0.2935185185185185, -0.3907407407407407]","[1, 1]","[0, 0]","[0, 0]","[3.538777800000389, 4.284311200000957]",['nextButton'],665835,001,2023-06-06_17h39.07.329,scripted_test,2022.2.5,60.12440942753938,
7,0,7,0,,,,,,images\real\7_002.jpg,images\synthetic\7_002.png,images\synthetic\7_002.png,Objects,115.15212000000065,115.15212000000065,0.06852969999999914,115.15212000000065,115.15212000000065,[0.5203703703703704],[-0.17314814814814813],[1],[0],[0],[5.411415500000658],['images\\synthetic\\7_002.png'],images\synthetic\7_002.png,1,5.411415500000658,120.5831589999998,120.5831589999998,0.02163970000037807,4.0,"[0.014814814814814815, 0.2675925925925926, -0.03888888888888889]","[-0.29814814814814816, -0.30648148148148147, -0.39444444444444443]","[1, 1, 1]","[0, 0, 0]","[0, 0, 0]","[2.6090533999995387, 5.106180199998562, 5.6717613999990135]",['nextButton'],665835,001,2023-06-06_17h39.07.329,scripted_test,2022.2.5,60.12440942753938,
8,0,8,0,,,,,,images\synthetic\7_003.png,images\real\7_003.jpg,images\synthetic\7_003.png,Objects,126.38511649999964,126.38511649999964,0.12123400000018592,126.38511649999964,126.38511649999964,[-0.1675925925925926],[-0.1685185185185185],[1],[0],[0],[7.944181699998808],['images\\synthetic\\7_003.png'],images\synthetic\7_003.png,1,7.944181699998808,134.3738814999997,134.3738814999997,0.04611459999978251,5.0,"[0.46111111111111114, 0.053703703703703705]","[-0.3055555555555556, -0.375]","[1, 1]","[0, 0]","[0, 0]","[2.5636170000016136, 3.3289334000000963]",['nextButton'],665835,001,2023-06-06_17h39.07.329,scripted_test,2022.2.5,60.12440942753938,
9,0,9,0,,,,,,images\real\6_002.jpeg,images\synthetic\6_002.png,images\synthetic\6_002.png,Food,137.76960959999997,137.76960959999997,0.06359629999860772,137.76960959999997,137.76960959999997,[0.5037037037037037],[-0.19907407407407407],[1],[0],[0],[3.8849680999992415],['images\\synthetic\\6_002.png'],images\synthetic\6_002.png,1,3.8849680999992415,141.68002139999953,141.68002139999953,0.020767500000147265,2.0,"[-0.24259259259259258, -0.016666666666666666]","[-0.3074074074074074, -0.387037037037037]","[1, 1]","[0, 0]","[0, 0]","[0.9064756000007037, 2.1906032000006235]",['nextButton'],665835,001,2023-06-06_17h39.07.329,scripted_test,2022.2.5,60.12440942753938,
10,0,10,0,,,,,,images\synthetic\4_002.png,images\real\4_002.jpg,images\synthetic\4_002.png,Houses (Exterior),143.99547560000065,143.99547560000065,0.11717520000092918,143.99547560000065,143.99547560000065,[-0.34814814814814815],[-0.18981481481481483],[1],[0],[0],[7.898399800000334],['images\\synthetic\\4_002.png'],images\synthetic\4_002.png,1,7.898399800000334,151.94316509999953,151.94316509999953,0.050178800000139745,3.0,"[0.046296296296296294, 0.002777777777777778]","[-0.3101851851851852, -0.38333333333333336]","[1, 1]","[0, 0]","[0, 0]","[0.774665200000527, 1.2592616000001726]",['nextButton'],665835,001,2023-06-06_17h39.07.329,scripted_test,2022.2.5,60.12440942753938,
11,0,11,0,,,,,,images\real\9_008.jpeg,images\synthetic\9_008.png,images\synthetic\9_008.png,Sports,153.3081985000008,153.3081985000008,0.0964830000011716,153.3081985000008,153.3081985000008,[0.38333333333333336],[-0.18055555555555555],[1],[0],[0],[2.7664492999992945],['images\\synthetic\\9_008.png'],images\synthetic\9_008.png,1,2.7664492999992945,156.13571520000005,156.13571520000005,0.06217319999996107,3.0,"[0.012037037037037037, 0.026851851851851852]","[-0.3, -0.4027777777777778]","[1, 1]","[0, 0]","[0, 0]","[2.4483347999994294, 3.2149833000003127]",['nextButton'],665835,001,2023-06-06_17h39.07.329,scripted_test,2022.2.5,60.12440942753938,
12,0,12,0,,,,,,images\real\10_002.jpeg,images\synthetic\10_002.jpg,images\synthetic\10_002.jpg,Groups of people,159.44098940000003,159.44098940000003,0.08214509999925212,159.44098940000003,159.44098940000003,[0.4861111111111111],[-0.1259259259259259],[1],[0],[0],[3.483245100000204],['images\\synthetic\\10_002.jpg'],images\synthetic\10_002.jpg,1,3.483245100000204,162.94336760000078,162.94336760000078,0.019804699999440345,1.0,"[-0.5083333333333333, 0.028703703703703703]","[-0.28888888888888886, -0.39166666666666666]","[1, 1]","[0, 0]","[0, 0]","[1.1898249999994732, 1.939606099998855]",['nextButton'],665835,001,2023-06-06_17h39.07.329,scripted_test,2022.2.5,60.12440942753938,
13,0,13,0,,,,,,images\real\5_001.jpg,images\synthetic\5_001.png,images\synthetic\5_001.png,Houses (Interior),164.9503089000009,164.9503089000009,0.058574300001055235,164.9503089000009,164.9503089000009,"[0.028703703703703703, 0.6509259259259259]","[-0.39166666666666666, -0.07592592592592592]","[1, 1]","[0, 0]","[0, 0]","[0.0003175999991071876, 10.641436599998997]",['images\\synthetic\\5_001.png'],images\synthetic\5_001.png,1,0.0003175999991071876,175.60058299999946,175.60058299999946,0.009911999999530963,2.0,"[-0.262037037037037, -0.003703703703703704]","[-0.2935185185185185, -0.4064814814814815]","[1, 1]","[0, 0]","[0, 0]","[1.2306394999995973, 1.8837192000009964]",['nextButton'],665835,001,2023-06-06_17h39.07.329,scripted_test,2022.2.5,60.12440942753938,
14,0,14,0,,,,,,images\synthetic\5_002.png,images\real\5_002.jpg,images\synthetic\5_002.png,Houses (Interior),177.60369250000076,177.60369250000076,0.10826700000143319,177.60369250000076,177.60369250000076,[-0.3851851851851852],[-0.18518518518518517],[1],[0],[0],[6.452800400000342],['images\\synthetic\\5_002.png'],images\synthetic\5_002.png,1,6.452800400000342,184.09141610000006,184.09141610000006,0.037728100000094855,5.0,"[0.5324074074074074, -0.017592592592592594]","[-0.2824074074074074, -0.4064814814814815]","[1, 1]","[0, 0]","[0, 0]","[0.823060799999439, 1.5895650000002206]",['nextButton'],665835,001,2023-06-06_17h39.07.329,scripted_test,2022.2.5,60.12440942753938,
15,0,15,0,,,,,,images\real\5_004.jpeg,images\synthetic\5_004.jpg,images\synthetic\5_004.jpg,Houses (Interior),185.71624130000055,185.71624130000055,0.024790900000880356,185.71624130000055,185.71624130000055,"[-0.017592592592592594, 0.5824074074074074]","[-0.4064814814814815, -0.21574074074074073]","[1, 1]","[0, 0]","[0, 0]","[0.0002643000007083174, 3.9058795000000828]",['images\\synthetic\\5_004.jpg'],images\synthetic\5_004.jpg,1,0.0002643000007083174,189.62439600000107,189.62439600000107,0.006041600001481129,1.0,"[-0.487962962962963, 0.007407407407407408]","[-0.2777777777777778, -0.37592592592592594]","[1, 1]","[0, 0]","[0, 0]","[1.3057349000009708, 2.988427700000102]",['nextButton'],665835,001,2023-06-06_17h39.07.329,scripted_test,2022.2.5,60.12440942753938,
16,0,16,0,,,,,,images\real\3_006.jpeg,images\synthetic\3_006.jpg,images\synthetic\3_006.jpg,Cars,192.72647300000062,192.72647300000062,0.10472900000058871,192.72647300000062,192.72647300000062,[0.29444444444444445],[-0.24074074074074073],[1],[0],[0],[5.359126499999547],['images\\synthetic\\3_006.jpg'],images\synthetic\3_006.jpg,1,5.359126499999547,198.09157810000033,198.09157810000033,0.007104499998604297,1.0,"[-0.4787037037037037, -0.075]","[-0.28888888888888886, -0.387037037037037]","[1, 1]","[0, 0]","[0, 0]","[1.4701471999997011, 2.319507000000158]",['nextButton'],665835,001,2023-06-06_17h39.07.329,scripted_test,2022.2.5,60.12440942753938,
17,0,17,0,,,,,,images\real\7_008.jpg,images\synthetic\7_008.png,images\synthetic\7_008.png,Objects,200.5194431,200.5194431,0.09915209999962826,200.5194431,200.5194431,[0.22592592592592592],[-0.20092592592592592],[1],[0],[0],[6.586195099998804],['images\\synthetic\\7_008.png'],images\synthetic\7_008.png,1,6.586195099998804,207.1580967000009,207.1580967000009,0.05295780000051309,4.0,"[0.24814814814814815, -0.01574074074074074]","[-0.2824074074074074, -0.3851851851851852]","[1, 1]","[0, 0]","[0, 0]","[2.290138399999705, 2.9517235000002984]",['nextButton'],665835,001,2023-06-06_17h39.07.329,scripted_test,2022.2.5,60.12440942753938,
18,0,18,0,,,,,,images\synthetic\7_001.png,images\real\7_001.jpg,images\synthetic\7_001.png,Objects,210.19539930000064,210.19539930000064,0.07453019999957178,210.19539930000064,210.19539930000064,[-0.1537037037037037],[-0.14629629629629629],[1],[0],[0],[6.910748300000705],['images\\synthetic\\7_001.png'],images\synthetic\7_001.png,1,6.910748300000705,217.1567353999999,217.1567353999999,0.053703700001278776,3.0,"[0.003703703703703704, -0.024074074074074074]","[-0.30925925925925923, -0.39351851851851855]","[1, 1]","[0, 0]","[0, 0]","[1.689589599998726, 2.419827300000179]",['nextButton'],665835,001,2023-06-06_17h39.07.329,scripted_test,2022.2.5,60.12440942753938,
19,0,19,0,,,,,,images\real\10_008.jpeg,images\synthetic\10_008.png,images\synthetic\10_008.png,Groups of people,219.65912370000115,219.65912370000115,0.07541470000069239,219.65912370000115,219.65912370000115,"[-0.024074074074074074, 0.38981481481481484]","[-0.39351851851851855, -0.17962962962962964]","[1, 1]","[0, 0]","[0, 0]","[0.0002777999998215819, 9.393351900000198]",['images\\synthetic\\10_008.png'],images\synthetic\10_008.png,1,0.0002777999998215819,229.09455909999997,229.09455909999997,0.042859600000156206,5.0,"[0.007407407407407408, 0.48055555555555557, 0.006481481481481481]","[-0.2962962962962963, -0.2851851851851852, -0.39444444444444443]","[1, 1, 1]","[0, 0, 0]","[0, 0, 0]","[2.3797854999993433, 4.697144699999626, 5.36316959999931]",['nextButton'],665835,001,2023-06-06_17h39.07.329,scripted_test,2022.2.5,60.12440942753938,
20,0,20,0,,,,,,images\synthetic\8_002.png,images\real\8_002.jpeg,images\synthetic\8_002.png,Landscapes,234.59240940000018,234.59240940000018,0.12470550000034564,234.59240940000018,234.59240940000018,[-0.18796296296296297],[-0.21574074074074073],[1],[0],[0],[1.8102266999994754],['images\\synthetic\\8_002.png'],images\synthetic\8_002.png,1,1.8102266999994754,236.43429900000046,236.43429900000046,0.03472510000028706,1.0,"[-0.48333333333333334, -0.006481481481481481]","[-0.2861111111111111, -0.39444444444444443]","[1, 1]","[0, 0]","[0, 0]","[1.1723679000006086, 2.3555587000009837]",['nextButton'],665835,001,2023-06-06_17h39.07.329,scripted_test,2022.2.5,60.12440942753938,
21,0,21,0,,,,,,images\synthetic\5_009.jpg,images\real\5_009.jpeg,images\synthetic\5_009.jpg,Houses (Interior),238.9019472,238.9019472,0.10155669999949168,238.9019472,238.9019472,[-0.16203703703703703],[-0.2916666666666667],[1],[0],[0],[4.980607900000905],['images\\synthetic\\5_009.jpg'],images\synthetic\5_009.jpg,1,4.980607900000905,243.89782730000115,243.89782730000115,0.017400199998519383,2.0,"[-0.525, -0.22407407407407406, -0.032407407407407406]","[-0.31203703703703706, -0.30185185185185187, -0.38425925925925924]","[1, 1, 1]","[0, 0, 0]","[0, 0, 0]","[0.8765609999991284, 1.59558990000005, 2.3421627000006993]",['nextButton'],665835,001,2023-06-06_17h39.07.329,scripted_test,2022.2.5,60.12440942753938,
22,0,22,0,,,,,,images\real\3_001.jpeg,images\synthetic\3_001.png,images\synthetic\3_001.png,Cars,246.4981315999994,246.4981315999994,0.24323770000046352,246.4981315999994,246.4981315999994,[0.44537037037037036],[-0.14629629629629629],[1],[0],[0],[4.872038999999859],['images\\synthetic\\3_001.png'],images\synthetic\3_001.png,1,4.872038999999859,251.5304200999999,251.5304200999999,0.1638877000004868,3.0,"[-0.23333333333333334, 0.012037037037037037, 0.049074074074074076]","[-0.2962962962962963, -0.2962962962962963, -0.3861111111111111]","[1, 1, 1]","[0, 0, 0]","[0, 0, 0]","[1.4118890000008832, 2.7302906999993866, 4.5466164000008575]",['nextButton'],665835,001,2023-06-06_17h39.07.329,scripted_test,2022.2.5,60.12440942753938,
23,0,23,0,,,,,,images\synthetic\8_004.png,images\real\8_004.jpeg,images\synthetic\8_004.png,Landscapes,256.1571721,256.1571721,0.08163199999944482,256.1571721,256.1571721,[-0.4185185185185185],[-0.19814814814814816],[1],[0],[0],[5.432648800000607],['images\\synthetic\\8_004.png'],images\synthetic\8_004.png,1,5.432648800000607,261.65294820000054,261.65294820000054,0.05941460000030929,4.0,"[0.28055555555555556, -0.017592592592592594]","[-0.30833333333333335, -0.4074074074074074]","[1, 1]","[0, 0]","[0, 0]","[1.0003016000009666, 2.11728310000035]",['nextButton'],665835,001,2023-06-06_17h39.07.329,scripted_test,2022.2.5,60.12440942753938,
24,0,24,0,,,,,,images\synthetic\2_011.png,images\real\2_011.jpeg,images\synthetic\2_011.png,People,263.8841518999998,263.8841518999998,0.10311410000031174,263.8841518999998,263.8841518999998,[-0.3037037037037037],[-0.058333333333333334],[1],[0],[0],[6.462175300001036],['images\\synthetic\\2_011.png'],images\synthetic\2_011.png,1,6.462175300001036,270.3898362,270.3898362,0.04563299999972514,5.0,"[0.5601851851851852, 0.4787037037037037, -0.05648148148148148]","[-0.2953703703703704, -0.29907407407407405, -0.38796296296296295]","[1, 1, 1]","[0, 0, 0]","[0, 0, 0]","[1.0459714000007807, 1.5128206999997929, 2.646037599999545]",['nextButton'],665835,001,2023-06-06_17h39.07.329,scripted_test,2022.2.5,60.12440942753938,
25,0,25,0,,,,,,images\real\8_006.jpeg,images\synthetic\8_006.png,images\synthetic\8_006.png,Landscapes,273.1166092000003,273.1166092000003,0.07131069999923056,273.1166092000003,273.1166092000003,[0.37407407407407406],[-0.19444444444444445],[1],[0],[0],[3.7089599999999336],['images\\synthetic\\8_006.png'],images\synthetic\8_006.png,1,3.7089599999999336,276.86078160000034,276.86078160000034,0.03656550000050629,4.0,"[0.24166666666666667, 0.04259259259259259]","[-0.2953703703703704, -0.4046296296296296]","[1, 1]","[0, 0]","[0, 0]","[0.626894999999422, 4.457367400000294]",['nextButton'],665835,001,2023-06-06_17h39.07.329,scripted_test,2022.2.5,60.12440942753938,
26,0,26,0,,,,,,images\real\7_007.jpeg,images\synthetic\7_007.png,images\synthetic\7_007.png,Objects,281.4203914000009,281.4203914000009,0.0935659000006126,281.4203914000009,281.4203914000009,[0.44814814814814813],[-0.25833333333333336],[1],[0],[0],[3.4720036999988224],['images\\synthetic\\7_007.png'],images\synthetic\7_007.png,1,3.4720036999988224,284.93609860000106,284.93609860000106,0.04541599999902246,5.0,"[0.4888888888888889, -0.007407407407407408]","[-0.2861111111111111, -0.38796296296296295]","[1, 1]","[0, 0]","[0, 0]","[0.9669265000011364, 1.7819648000004236]",['nextButton'],665835,001,2023-06-06_17h39.07.329,scripted_test,2022.2.5,60.12440942753938,
27,0,27,0,,,,,,images\synthetic\9_012.png,images\real\9_012.jpeg,images\synthetic\9_012.png,Sports,286.7965703000009,286.7965703000009,0.06735070000104315,286.7965703000009,286.7965703000009,"[-0.007407407407407408, -0.1824074074074074]","[-0.38796296296296295, -0.2796296296296296]","[1, 1]","[0, 0]","[0, 0]","[0.0008980000002338784, 7.8462679000003845]",['images\\synthetic\\9_012.png'],images\synthetic\9_012.png,1,0.0008980000002338784,294.68336760000057,294.68336760000057,0.04540909999923315,5.0,"[0.4759259259259259, -0.032407407407407406]","[-0.287962962962963, -0.4027777777777778]","[1, 1]","[0, 0]","[0, 0]","[2.265031300001283, 5.048670800000764]",['nextButton'],665835,001,2023-06-06_17h39.07.329,scripted_test,2022.2.5,60.12440942753938,
28,0,28,0,,,,,,images\synthetic\5_007.jpg,images\real\5_007.jpeg,images\synthetic\5_007.jpg,Houses (Interior),299.7906509000004,299.7906509000004,0.0486585999988165,299.7906509000004,299.7906509000004,"[-0.032407407407407406, 0.4212962962962963]","[-0.4027777777777778, -0.22870370370370371]","[1, 1]","[0, 0]","[0, 0]","[0.0003467999995336868, 11.777687599998899]",['images\\real\\5_007.jpeg'],images\real\5_007.jpeg,0,0.0003467999995336868,311.61245039999994,311.61245039999994,0.03981089999979304,3.0,"[0.023148148148148147, -0.025]","[-0.31203703703703706, -0.39814814814814814]","[1, 1]","[0, 0]","[0, 0]","[2.28644820000045, 2.7530747999990126]",['nextButton'],665835,001,2023-06-06_17h39.07.329,scripted_test,2022.2.5,60.12440942753938,
29,0,29,0,,,,,,images\real\7_006.jpg,images\synthetic\7_006.png,images\synthetic\7_006.png,Objects,314.5058121000002,314.5058121000002,0.13326229999984207,314.5058121000002,314.5058121000002,[0.30092592592592593],[-0.24351851851851852],[1],[0],[0],[7.281650200000513],['images\\synthetic\\7_006.png'],images\synthetic\7_006.png,1,7.281650200000513,321.836089800001,321.836089800001,0.04959859999871696,5.0,"[0.4777777777777778, -0.030555555555555555]","[-0.2898148148148148, -0.387037037037037]","[1, 1]","[0, 0]","[0, 0]","[1.576547800001208, 2.3105919000008726]",['nextButton'],665835,001,2023-06-06_17h39.07.329,scripted_test,2022.2.5,60.12440942753938,
30,0,30,0,,,,,,images\real\2_014.jpg,images\synthetic\2_014.png,images\synthetic\2_014.png,People,324.2398539000005,324.2398539000005,0.08091930000045977,324.2398539000005,324.2398539000005,[-0.1685185185185185],[-0.24259259259259258],[1],[0],[0],[7.248798700000407],['images\\real\\2_014.jpg'],images\real\2_014.jpg,0,7.248798700000407,331.5318007999995,331.5318007999995,0.04620709999835526,5.0,"[0.4740740740740741, -0.003703703703703704]","[-0.2851851851851852, -0.387037037037037]","[1, 1]","[0, 0]","[0, 0]","[0.9986366000011913, 1.7308511000010185]",['nextButton'],665835,001,2023-06-06_17h39.07.329,scripted_test,2022.2.5,60.12440942753938,
31,0,31,0,,,,,,images\real\10_006.jpeg,images\synthetic\10_006.png,images\synthetic\10_006.png,Groups of people,333.4000096,333.4000096,0.12670280000020284,333.4000096,333.4000096,[0.45740740740740743],[-0.23981481481481481],[1],[0],[0],[10.837619599999016],['images\\synthetic\\10_006.png'],images\synthetic\10_006.png,1,10.837619599999016,344.2716865000002,344.2716865000002,0.03325890000087384,4.0,"[0.23981481481481481, -0.03148148148148148]","[-0.3055555555555556, -0.39537037037037037]","[1, 1]","[0, 0]","[0, 0]","[1.7767098999993323, 3.0093514999989566]",['nextButton'],665835,001,2023-06-06_17h39.07.329,scripted_test,2022.2.5,60.12440942753938,
32,0,32,0,,,,,,images\real\4_009.png,images\synthetic\4_009.png,images\synthetic\4_009.png,Houses (Exterior),347.37090720000015,347.37090720000015,0.08398219999980938,347.37090720000015,347.37090720000015,"[-0.03148148148148148, -0.1962962962962963]","[-0.39537037037037037, -0.22870370370370371]","[1, 1]","[0, 0]","[0, 0]","[0.0003465999998297775, 7.0609100999990915]",['images\\real\\4_009.png'],images\real\4_009.png,0,0.0003465999998297775,354.4586280000003,354.4586280000003,0.02716580000014801,5.0,"[0.5351851851851852, 0.019444444444444445]","[-0.29907407407407405, -0.38425925925925924]","[1, 1]","[0, 0]","[0, 0]","[2.0016270999985863, 2.801137699998435]",['nextButton'],665835,001,2023-06-06_17h39.07.329,scripted_test,2022.2.5,60.12440942753938,
33,0,33,0,,,,,,images\synthetic\2_015.png,images\real\2_015.jpg,images\synthetic\2_015.png,People,357.3282582000011,357.3282582000011,0.06358069999987492,357.3282582000011,357.3282582000011,"[0.019444444444444445, 0.4583333333333333]","[-0.38425925925925924, -0.26666666666666666]","[1, 1]","[0, 0]","[0, 0]","[0.0002848999993148027, 10.50018099999943]",['images\\real\\2_015.jpg'],images\real\2_015.jpg,0,0.0002848999993148027,367.84336450000046,367.84336450000046,0.014386900000317837,5.0,"[0.4935185185185185, 0.017592592592592594]","[-0.2972222222222222, -0.3768518518518518]","[1, 1]","[0, 0]","[0, 0]","[1.6980450000010023, 2.31277240000054]",['nextButton'],665835,001,2023-06-06_17h39.07.329,scripted_test,2022.2.5,60.12440942753938,
34,0,34,0,,,,,,images\synthetic\2_001.png,images\real\2_001.jpg,images\synthetic\2_001.png,People,370.18814550000025,370.18814550000025,0.027118199999677017,370.18814550000025,370.18814550000025,"[0.017592592592592594, 0.23703703703703705]","[-0.3768518518518518, -0.17037037037037037]","[1, 1]","[0, 0]","[0, 0]","[0.0002984000002470566, 8.870666400000118]",['images\\real\\2_001.jpg'],images\real\2_001.jpg,0,0.0002984000002470566,379.07027689999995,379.07027689999995,0.010152700000617187,5.0,"[0.5, 0.03518518518518519]","[-0.30092592592592593, -0.3824074074074074]","[1, 1]","[0, 0]","[0, 0]","[1.4500981999990472, 2.200136099998417]",['nextButton'],665835,001,2023-06-06_17h39.07.329,scripted_test,2022.2.5,60.12440942753938,
35,0,35,0,,,,,,images\synthetic\2_005.png,images\real\2_005.jpg,images\synthetic\2_005.png,People,381.2924519999997,381.2924519999997,0.016971600000033504,381.2924519999997,381.2924519999997,"[0.03518518518518519, -0.15648148148148147]","[-0.3824074074074074, -0.1925925925925926]","[1, 1]","[0, 0]","[0, 0]","[0.00057820000074571, 6.947020699999484]",['images\\synthetic\\2_005.png'],images\synthetic\2_005.png,1,0.00057820000074571,388.25523710000016,388.25523710000016,0.012725399999908404,3.0,"[0.027777777777777776, -0.013888888888888888]","[-0.3037037037037037, -0.3824074074074074]","[1, 1]","[0, 0]","[0, 0]","[1.9305758999998943, 2.383354800000234]",['nextButton'],665835,001,2023-06-06_17h39.07.329,scripted_test,2022.2.5,60.12440942753938,
36,0,36,0,,,,,,images\real\5_008.jpeg,images\synthetic\5_008.jpg,images\synthetic\5_008.jpg,Houses (Interior),390.7688913000002,390.7688913000002,0.12344979999943462,390.7688913000002,390.7688913000002,[-0.20185185185185187],[-0.2212962962962963],[1],[0],[0],[4.872920399999202],['images\\real\\5_008.jpeg'],images\real\5_008.jpeg,0,4.872920399999202,395.69287930000064,395.69287930000064,0.049038900000596186,3.0,"[-0.009259259259259259, 0.03333333333333333]","[-0.3, -0.39537037037037037]","[1, 1]","[0, 0]","[0, 0]","[4.6429623999993055, 6.509594899998774]",['nextButton'],665835,001,2023-06-06_17h39.07.329,scripted_test,2022.2.5,60.12440942753938,
37,0,37,0,,,,,,images\real\1_007.jpg,images\synthetic\1_007.png,images\synthetic\1_007.png,Animals,402.26176080000005,402.26176080000005,0.05605490000016289,402.26176080000005,402.26176080000005,"[0.03333333333333333, 0.6444444444444445]","[-0.39537037037037037, -0.24166666666666667]","[1, 1]","[0, 0]","[0, 0]","[0.0004293999991205055, 8.309875299999476]",['images\\synthetic\\1_007.png'],images\synthetic\1_007.png,1,0.0004293999991205055,410.62022849999994,410.62022849999994,0.04297680000127002,5.0,"[0.4962962962962963, 0.006481481481481481]","[-0.2962962962962963, -0.37962962962962965]","[1, 1]","[0, 0]","[0, 0]","[2.1170355000012933, 3.415608900000734]",['nextButton'],665835,001,2023-06-06_17h39.07.329,scripted_test,2022.2.5,60.12440942753938,
38,0,38,0,,,,,,images\synthetic\4_011.png,images\real\4_011.png,images\synthetic\4_011.png,Houses (Exterior),414.1365232999997,414.1365232999997,0.09615900000062538,414.1365232999997,414.1365232999997,[-0.1962962962962963],[-0.2111111111111111],[1],[0],[0],[2.5370622999998886],['images\\synthetic\\4_011.png'],images\synthetic\4_011.png,1,2.5370622999998886,416.7139148999995,416.7139148999995,0.03905019999911019,3.0,"[0.021296296296296296, 0.002777777777777778]","[-0.30833333333333335, -0.4166666666666667]","[1, 1]","[0, 0]","[0, 0]","[1.5697698999993008, 2.6880886999988434]",['nextButton'],665835,001,2023-06-06_17h39.07.329,scripted_test,2022.2.5,60.12440942753938,
39,0,39,0,,,,,,images\synthetic\8_008.png,images\real\8_008.jpeg,images\synthetic\8_008.png,Landscapes,419.52171009999984,419.52171009999984,0.11168370000086725,419.52171009999984,419.52171009999984,[-0.2212962962962963],[-0.2101851851851852],[1],[0],[0],[6.988171799999691],['images\\synthetic\\8_008.png'],images\synthetic\8_008.png,1,6.988171799999691,426.5461462000003,426.5461462000003,0.03848909999942407,3.0,"[0.04259259259259259, 0.016666666666666666, 0.000925925925925926]","[-0.3055555555555556, -0.35833333333333334, -0.37962962962962965]","[1, 1, 1]","[0, 0, 0]","[0, 0, 0]","[1.5009244000011677, 2.118504500000199, 2.3672703000011097]",['nextButton'],665835,001,2023-06-06_17h39.07.329,scripted_test,2022.2.5,60.12440942753938,
40,0,40,0,,,,,,images\synthetic\10_007.png,images\real\10_007.jpg,images\synthetic\10_007.png,Groups of people,428.97540169999957,428.97540169999957,0.0506561000001966,428.97540169999957,428.97540169999957,[-0.23148148148148148],[-0.12777777777777777],[1],[0],[0],[4.431478900000002],['images\\synthetic\\10_007.png'],images\synthetic\10_007.png,1,4.431478900000002,433.430958500001,433.430958500001,0.02701080000042566,2.0,"[0.004629629629629629, -0.24814814814814815, -0.03796296296296296]","[-0.3074074074074074, -0.3148148148148148, -0.3907407407407407]","[1, 1, 1]","[0, 0, 0]","[0, 0, 0]","[2.0178061999995407, 3.3520128000000113, 4.167805999999473]",['nextButton'],665835,001,2023-06-06_17h39.07.329,scripted_test,2022.2.5,60.12440942753938,
41,0,41,0,,,,,,images\synthetic\7_012.png,images\real\7_012.jpg,images\synthetic\7_012.png,Objects,437.7087967999996,437.7087967999996,0.10058380000009493,437.7087967999996,437.7087967999996,[-0.2935185185185185],[-0.18518518518518517],[1],[0],[0],[3.81144200000017],['images\\synthetic\\7_012.png'],images\synthetic\7_012.png,1,3.81144200000017,441.5609199999999,441.5609199999999,0.04262890000063635,3.0,"[-0.001851851851851852, -0.06388888888888888]","[-0.3148148148148148, -0.4101851851851852]","[1, 1]","[0, 0]","[0, 0]","[0.8019904000011593, 1.1699306000009528]",['nextButton'],665835,001,2023-06-06_17h39.07.329,scripted_test,2022.2.5,60.12440942753938,
42,0,42,0,,,,,,images\real\3_007.jpeg,images\synthetic\3_007.jpg,images\synthetic\3_007.jpg,Cars,442.79353489999994,442.79353489999994,0.05187859999932698,442.79353489999994,442.79353489999994,"[-0.06296296296296296, 0.37222222222222223]","[-0.4101851851851852, -0.24259259259259258]","[1, 1]","[0, 0]","[0, 0]","[0.0004802999992534751, 2.62660539999888]",['images\\synthetic\\3_007.jpg'],images\synthetic\3_007.jpg,1,0.0004802999992534751,445.4376658000001,445.4376658000001,0.02042529999926046,1.0,"[-0.26666666666666666, -0.37777777777777777, -0.46944444444444444, -0.004629629629629629]","[-0.30092592592592593, -0.2657407407407407, -0.3101851851851852, -0.3972222222222222]","[1, 1, 1, 1]","[0, 0, 0, 0]","[0, 0, 0, 0]","[1.2575653000003513, 3.228648800000883, 3.5577581000015925, 4.2776049000003695]",['nextButton'],665835,001,2023-06-06_17h39.07.329,scripted_test,2022.2.5,60.12440942753938,
43,0,43,0,,,,,,images\synthetic\2_012.png,images\real\2_012.jpeg,images\synthetic\2_012.png,People,449.80444460000035,449.80444460000035,0.08046029999968596,449.80444460000035,449.80444460000035,[-0.17222222222222222],[-0.1685185185185185],[1],[0],[0],[5.879878499999904],['images\\synthetic\\2_012.png'],images\synthetic\2_012.png,1,5.879878499999904,455.7223336999996,455.7223336999996,0.03835550000076182,4.0,"[0.09814814814814815, 0.23796296296296296, -0.027777777777777776]","[-0.30277777777777776, -0.2972222222222222, -0.3851851851851852]","[1, 1, 1]","[0, 0, 0]","[0, 0, 0]","[1.705748999998832, 2.8897624000001088, 4.4892627999997785]",['nextButton'],665835,001,2023-06-06_17h39.07.329,scripted_test,2022.2.5,60.12440942753938,
44,0,44,0,,,,,,images\synthetic\9_010.png,images\real\9_010.jpg,images\synthetic\9_010.png,Sports,460.3572017000006,460.3572017000006,0.13611620000119729,460.3572017000006,460.3572017000006,[0.3574074074074074],[-0.18981481481481483],[1],[0],[0],[8.911342499999591],['images\\real\\9_010.jpg'],images\real\9_010.jpg,0,8.911342499999591,469.32993290000013,469.32993290000013,0.06057619999955932,5.0,"[0.5083333333333333, 0.02962962962962963]","[-0.30092592592592593, -0.38055555555555554]","[1, 1]","[0, 0]","[0, 0]","[1.8982398000007379, 2.648263600000064]",['nextButton'],665835,001,2023-06-06_17h39.07.329,scripted_test,2022.2.5,60.12440942753938,
45,0,45,0,,,,,,images\real\10_005.jpg,images\synthetic\10_005.png,images\synthetic\10_005.png,Groups of people,472.0799478000008,472.0799478000008,0.09425200000077893,472.0799478000008,472.0799478000008,[0.649074074074074],[-0.21203703703703702],[1],[0],[0],[2.6418697999997676],['images\\synthetic\\10_005.png'],images\synthetic\10_005.png,1,2.6418697999997676,474.7674659000004,474.7674659000004,0.045746199999484816,5.0,"[0.5, -0.002777777777777778]","[-0.29907407407407405, -0.38425925925925924]","[1, 1]","[0, 0]","[0, 0]","[0.8267697999999655, 1.8778348000014375]",['nextButton'],665835,001,2023-06-06_17h39.07.329,scripted_test,2022.2.5,60.12440942753938,
46,0,46,0,,,,,,images\real\5_010.jpeg,images\synthetic\5_010.jpg,images\synthetic\5_010.jpg,Houses (Interior),476.6983629999995,476.6983629999995,0.04939869999907387,476.6983629999995,476.6983629999995,"[-0.002777777777777778, 0.5453703703703704]","[-0.38425925925925924, -0.2074074074074074]","[1, 1]","[0, 0]","[0, 0]","[0.0003644999997050036, 3.5976325000010547]",['images\\synthetic\\5_010.jpg'],images\synthetic\5_010.jpg,1,0.0003644999997050036,480.32447590000083,480.32447590000083,0.025390900000274996,2.0,"[0.04814814814814815, -0.24074074074074073, -0.09074074074074075]","[-0.275, -0.28888888888888886, -0.38796296296296295]","[1, 1, 1]","[0, 0, 0]","[0, 0, 0]","[1.3497274999990623, 2.216104799999812, 2.950398099999802]",['nextButton'],665835,001,2023-06-06_17h39.07.329,scripted_test,2022.2.5,60.12440942753938,
47,0,47,0,,,,,,images\synthetic\9_007.png,images\real\9_007.jpeg,images\synthetic\9_007.png,Sports,483.33439739999994,483.33439739999994,0.05214189999969676,483.33439739999994,483.33439739999994,"[-0.09074074074074075, 0.587037037037037]","[-0.38796296296296295, -0.19907407407407407]","[1, 1]","[0, 0]","[0, 0]","[0.0004028000003017951, 7.26097370000025]",['images\\real\\9_007.jpeg'],images\real\9_007.jpeg,0,0.0004028000003017951,490.6147552000002,490.6147552000002,0.01886009999907401,5.0,"[0.4898148148148148, 0.016666666666666666]","[-0.30277777777777776, -0.38796296296296295]","[1, 1]","[0, 0]","[0, 0]","[4.19164930000079, 5.058816000000661]",['nextButton'],665835,001,2023-06-06_17h39.07.329,scripted_test,2022.2.5,60.12440942753938,
48,0,48,0,,,,,,images\real\4_005.jpg,images\synthetic\4_005.jpg,images\synthetic\4_005.jpg,Houses (Exterior),495.704211100001,495.704211100001,0.02510170000095968,495.704211100001,495.704211100001,"[0.016666666666666666, -0.3925925925925926]","[-0.38796296296296295, -0.14907407407407408]","[1, 1]","[0, 0]","[0, 0]","[0.000282599999991362, 3.805003100000249]",['images\\real\\4_005.jpg'],images\real\4_005.jpg,0,0.000282599999991362,499.52813349999997,499.52813349999997,0.017394399999830057,4.0,"[0.2518518518518518, -0.004629629629629629]","[-0.31851851851851853, -0.3972222222222222]","[1, 1]","[0, 0]","[0, 0]","[2.62759510000069, 3.410190100001273]",['nextButton'],665835,001,2023-06-06_17h39.07.329,scripted_test,2022.2.5,60.12440942753938,
49,0,49,0,,,,,,images\synthetic\3_002.jpg,images\real\3_002.png,images\synthetic\3_002.jpg,Cars,503.06382380000105,503.06382380000105,0.11732510000001639,503.06382380000105,503.06382380000105,[0.43333333333333335],[-0.262037037037037],[1],[0],[0],[8.737493599999652],['images\\real\\3_002.png'],images\real\3_002.png,0,8.737493599999652,511.89557070000046,511.89557070000046,0.09167609999894921,5.0,"[0.49166666666666664, -0.004629629629629629]","[-0.2972222222222222, -0.4009259259259259]","[1, 1]","[0, 0]","[0, 0]","[2.0977213000005577, 2.8782392000011896]",['nextButton'],665835,001,2023-06-06_17h39.07.329,scripted_test,2022.2.5,60.12440942753938,
50,0,50,0,,,,,,images\synthetic\10_003.jpg,images\real\10_003.jpg,images\synthetic\10_003.jpg,Groups of people,514.818476800001,514.818476800001,0.04034309999951802,514.818476800001,514.818476800001,"[-0.004629629629629629, -0.18611111111111112]","[-0.4009259259259259, -0.2462962962962963]","[1, 1]","[0, 0]","[0, 0]","[0.0003741999989870237, 8.02532489999976]",['images\\synthetic\\10_003.jpg'],images\synthetic\10_003.jpg,1,0.0003741999989870237,522.8551382000005,522.8551382000005,0.007632299999386305,1.0,"[-0.42314814814814816, 0.03518518518518519]","[-0.2935185185185185, -0.387037037037037]","[1, 1]","[0, 0]","[0, 0]","[1.366307099999176, 2.4490280999998504]",['nextButton'],665835,001,2023-06-06_17h39.07.329,scripted_test,2022.2.5,60.12440942753938,
51,0,51,0,,,,,,images\synthetic\7_010.png,images\real\7_010.jpg,images\synthetic\7_010.png,Objects,525.3882692000007,525.3882692000007,0.0802254999998695,525.3882692000007,525.3882692000007,[0.4361111111111111],[-0.24722222222222223],[1],[0],[0],[2.434519200000068],['images\\real\\7_010.jpg'],images\real\7_010.jpg,0,2.434519200000068,527.8405863000007,527.8405863000007,0.017852499999207794,1.0,"[-0.5472222222222223, -0.03796296296296296]","[-0.29074074074074074, -0.3824074074074074]","[1, 1]","[0, 0]","[0, 0]","[1.278229999999894, 2.0639443999989453]",['nextButton'],665835,001,2023-06-06_17h39.07.329,scripted_test,2022.2.5,60.12440942753938,
52,0,52,0,,,,,,images\synthetic\4_004.jpg,images\real\4_004.jpg,images\synthetic\4_004.jpg,Houses (Exterior),529.9453582000006,529.9453582000006,0.03292460000011488,529.9453582000006,529.9453582000006,"[-0.03796296296296296, -0.23148148148148148]","[-0.3824074074074074, -0.17685185185185184]","[1, 1]","[0, 0]","[0, 0]","[0.00028589999965333845, 8.094864799999414]",['images\\synthetic\\4_004.jpg'],images\synthetic\4_004.jpg,1,0.00028589999965333845,538.0530909000008,538.0530909000008,0.012988000000405009,3.0,"[-0.003703703703703704, -0.013888888888888888]","[-0.2972222222222222, -0.3824074074074074]","[1, 1]","[0, 0]","[0, 0]","[1.9808570000004693, 2.3646273000013025]",['nextButton'],665835,001,2023-06-06_17h39.07.329,scripted_test,2022.2.5,60.12440942753938,
53,0,53,0,,,,,,images\synthetic\3_003.jpg,images\real\3_003.jpeg,images\synthetic\3_003.jpg,Cars,540.5026226000009,540.5026226000009,0.07889950000026147,540.5026226000009,540.5026226000009,[-0.22592592592592592],[-0.19074074074074074],[1],[0],[0],[1.6189336999996158],['images\\synthetic\\3_003.jpg'],images\synthetic\3_003.jpg,1,1.6189336999996158,542.1278060000004,542.1278060000004,0.005690999998478219,1.0,"[-0.512962962962963, 0.016666666666666666]","[-0.30648148148148147, -0.39166666666666666]","[1, 1]","[0, 0]","[0, 0]","[0.8717736999988119, 2.8212524999999005]",['nextButton'],665835,001,2023-06-06_17h39.07.329,scripted_test,2022.2.5,60.12440942753938,
54,0,54,0,,,,,,images\real\7_009.jpg,images\synthetic\7_009.png,images\synthetic\7_009.png,Objects,545.0363976999997,545.0363976999997,0.07977700000083132,545.0363976999997,545.0363976999997,[-0.3425925925925926],[-0.24444444444444444],[1],[0],[0],[10.582945500000278],['images\\real\\7_009.jpg'],images\real\7_009.jpg,0,10.582945500000278,555.6542602000009,555.6542602000009,0.03340600000046834,4.0,"[-0.010185185185185186, 0.2657407407407407, 0.025925925925925925]","[-0.3101851851851852, -0.3138888888888889, -0.38796296296296295]","[1, 1, 1]","[0, 0, 0]","[0, 0, 0]","[3.643721500000538, 4.860243000000992, 5.627014800000325]",['nextButton'],665835,001,2023-06-06_17h39.07.329,scripted_test,2022.2.5,60.12440942753938,
55,0,55,0,,,,,,images\synthetic\3_012.png,images\real\3_012.jpeg,images\synthetic\3_012.png,Cars,561.3670516000002,561.3670516000002,0.07816819999970903,561.3670516000002,561.3670516000002,"[0.025925925925925925, -0.24166666666666667]","[-0.38796296296296295, -0.16666666666666666]","[1, 1]","[0, 0]","[0, 0]","[0.00042800000119314063, 6.603588400001172]",['images\\synthetic\\3_012.png'],images\synthetic\3_012.png,1,0.00042800000119314063,568.0097802,568.0097802,0.03935319999982312,2.0,"[-0.25092592592592594, -0.2564814814814815, 0.01574074074074074]","[-0.2611111111111111, -0.2861111111111111, -0.37777777777777777]","[1, 1, 1]","[0, 0, 0]","[0, 0, 0]","[2.359397700000045, 2.7710683999994217, 3.5213529000011476]",['nextButton'],665835,001,2023-06-06_17h39.07.329,scripted_test,2022.2.5,60.12440942753938,
56,0,56,0,,,,,,images\real\3_005.jpeg,images\synthetic\3_005.jpg,images\synthetic\3_005.jpg,Cars,571.5635939000003,571.5635939000003,0.027724300000045332,571.5635939000003,571.5635939000003,"[0.01574074074074074, 0.26666666666666666]","[-0.37777777777777777, -0.2111111111111111]","[1, 1]","[0, 0]","[0, 0]","[0.0003529999994498212, 10.251771399998688]",['images\\synthetic\\3_005.jpg'],images\synthetic\3_005.jpg,1,0.0003529999994498212,581.8273905999995,581.8273905999995,0.011091800000940566,4.0,"[0.22407407407407406, -0.01574074074074074]","[-0.31666666666666665, -0.4009259259259259]","[1, 1]","[0, 0]","[0, 0]","[1.019547899999452, 1.5833044999999402]",['nextButton'],665835,001,2023-06-06_17h39.07.329,scripted_test,2022.2.5,60.12440942753938,
57,0,57,0,,,,,,images\real\5_005.jpeg,images\synthetic\5_005.jpg,images\synthetic\5_005.jpg,Houses (Interior),583.5082265000001,583.5082265000001,0.09088259999953152,583.5082265000001,583.5082265000001,[0.3768518518518518],[-0.21388888888888888],[1],[0],[0],[1.841685100000177],['images\\synthetic\\5_005.jpg'],images\synthetic\5_005.jpg,1,1.841685100000177,585.3540959000002,585.3540959000002,0.004646400000638096,1.0,"[-0.44166666666666665, -0.001851851851851852]","[-0.2935185185185185, -0.40925925925925927]","[1, 1]","[0, 0]","[0, 0]","[0.9721640000007028, 1.7218033999997715]",['nextButton'],665835,001,2023-06-06_17h39.07.329,scripted_test,2022.2.5,60.12440942753938,
58,0,58,0,,,,,,images\real\2_008.jpg,images\synthetic\2_008.jpg,images\synthetic\2_008.jpg,People,587.0971245000001,587.0971245000001,0.013798500000120839,587.0971245000001,587.0971245000001,"[-0.001851851851851852, 0.38981481481481484]","[-0.40925925925925927, -0.16666666666666666]","[1, 1]","[0, 0]","[0, 0]","[0.00026020000041171443, 3.136212400000659]",['images\\synthetic\\2_008.jpg'],images\synthetic\2_008.jpg,1,0.00026020000041171443,590.2381734999999,590.2381734999999,0.005302199999277946,1.0,"[-0.4148148148148148, 0.05092592592592592, 0.003703703703703704]","[-0.29907407407407405, -0.3611111111111111, -0.4009259259259259]","[1, 1, 1]","[0, 0, 0]","[0, 0, 0]","[0.9368868999990809, 1.9375642999984848, 2.8534161999996286]",['nextButton'],665835,001,2023-06-06_17h39.07.329,scripted_test,2022.2.5,60.12440942753938,
59,0,59,0,,,,,,images\synthetic\8_007.png,images\real\8_007.jpeg,images\synthetic\8_007.png,Landscapes,593.1775345000005,593.1775345000005,0.07979920000070706,593.1775345000005,593.1775345000005,[-0.34444444444444444],[-0.18055555555555555],[1],[0],[0],[2.056630299999597],['images\\synthetic\\8_007.png'],images\synthetic\8_007.png,1,2.056630299999597,595.276679300001,595.276679300001,0.041028699999515084,1.0,"[-0.41574074074074074, -0.25462962962962965, -0.4398148148148148, 0.004629629629629629]","[-0.30648148148148147, -0.2972222222222222, -0.3, -0.3907407407407407]","[1, 1, 1, 1]","[0, 0, 0, 0]","[0, 0, 0, 0]","[0.665592999999717, 3.450213899999653, 5.348879600000146, 6.014640800000052]",['nextButton'],665835,001,2023-06-06_17h39.07.329,scripted_test,2022.2.5,60.12440942753938,
60,0,60,0,,,,,,images\real\6_005.jpg,images\synthetic\6_005.png,images\synthetic\6_005.png,Food,601.4416412999999,601.4416412999999,0.14132539999991423,601.4416412999999,601.4416412999999,[0.412962962962963],[-0.1685185185185185],[1],[0],[0],[7.443558099999791],['images\\synthetic\\6_005.png'],images\synthetic\6_005.png,1,7.443558099999791,608.9326175000006,608.9326175000006,0.047921500001393724,5.0,"[0.5101851851851852, 0.001851851851851852]","[-0.31574074074074077, -0.39444444444444443]","[1, 1]","[0, 0]","[0, 0]","[1.6589610999999422, 2.445798900000227]",['nextButton'],665835,001,2023-06-06_17h39.07.329,scripted_test,2022.2.5,60.12440942753938,
61,0,61,0,,,,,,images\real\1_009.jpg,images\synthetic\1_009.png,images\synthetic\1_009.png,Animals,611.4325256000011,611.4325256000011,0.050577899999552756,611.4325256000011,611.4325256000011,"[0.001851851851851852, 0.5027777777777778]","[-0.39444444444444443, -0.14814814814814814]","[1, 1]","[0, 0]","[0, 0]","[0.00031739999940327834, 8.04277809999985]",['images\\synthetic\\1_009.png'],images\synthetic\1_009.png,1,0.00031739999940327834,619.5105717999995,619.5105717999995,0.03176499999972293,4.0,"[0.25277777777777777, 0.08148148148148149]","[-0.30833333333333335, -0.3712962962962963]","[1, 1]","[0, 0]","[0, 0]","[0.5960532999997668, 1.0125776000004407]",['nextButton'],665835,001,2023-06-06_17h39.07.329,scripted_test,2022.2.5,60.12440942753938,
62,0,62,0,,,,,,images\synthetic\8_009.png,images\real\8_009.jpeg,images\synthetic\8_009.png,Landscapes,620.5658007000002,620.5658007000002,0.03801029999885941,620.5658007000002,620.5658007000002,"[0.08148148148148149, 0.40925925925925927]","[-0.3712962962962963, -0.18888888888888888]","[1, 1]","[0, 0]","[0, 0]","[0.0004077000012330245, 4.893029000000752]",['images\\real\\8_009.jpeg'],images\real\8_009.jpeg,0,0.0004077000012330245,625.4826598,625.4826598,0.02116089999981341,3.0,"[-0.08703703703703704, -0.0824074074074074]","[-0.287962962962963, -0.40370370370370373]","[1, 1]","[0, 0]","[0, 0]","[1.356396400000449, 2.9057939000012993]",['nextButton'],665835,001,2023-06-06_17h39.07.329,scripted_test,2022.2.5,60.12440942753938,
63,0,63,0,,,,,,images\synthetic\10_004.png,images\real\10_004.jpeg,images\synthetic\10_004.png,Groups of people,628.4614036000003,628.4614036000003,0.06619840000166732,628.4614036000003,628.4614036000003,"[-0.0824074074074074, -0.26481481481481484]","[-0.40370370370370373, -0.16666666666666666]","[1, 1]","[0, 0]","[0, 0]","[0.0003443000005063368, 2.1508929999999964]",['images\\synthetic\\10_004.png'],images\synthetic\10_004.png,1,0.0003443000005063368,630.646987600001,630.646987600001,0.034493699999075034,1.0,"[-0.487962962962963, -0.016666666666666666]","[-0.29907407407407405, -0.38796296296296295]","[1, 1]","[0, 0]","[0, 0]","[0.6796725999993214, 1.3909247999999934]",['nextButton'],665835,001,2023-06-06_17h39.07.329,scripted_test,2022.2.5,60.12440942753938,
64,0,64,0,,,,,,images\real\9_001.jpg,images\synthetic\9_001.png,images\synthetic\9_001.png,Sports,632.1515529999997,632.1515529999997,0.1069588999998814,632.1515529999997,632.1515529999997,[0.40555555555555556],[-0.11666666666666667],[1],[0],[0],[13.758905900000173],['images\\synthetic\\9_001.png'],images\synthetic\9_001.png,1,13.758905900000173,645.9585791000009,645.9585791000009,0.04734959999950661,5.0,"[0.5185185185185185, 0.019444444444444445]","[-0.2898148148148148, -0.3824074074074074]","[1, 1]","[0, 0]","[0, 0]","[1.2451553999999305, 2.0627865999995265]",['nextButton'],665835,001,2023-06-06_17h39.07.329,scripted_test,2022.2.5,60.12440942753938,
65,0,65,0,,,,,,images\real\2_016.jpg,images\synthetic\2_016.png,images\synthetic\2_016.png,People,648.1500483,648.1500483,0.12097390000053565,648.1500483,648.1500483,[0.549074074074074],[-0.15555555555555556],[1],[0],[0],[6.041659599999548],['images\\synthetic\\2_016.png'],images\synthetic\2_016.png,1,6.041659599999548,654.2275078000002,654.2275078000002,0.037510799998926814,5.0,"[0.512962962962963, 0.05925925925925926]","[-0.30462962962962964, -0.38425925925925924]","[1, 1]","[0, 0]","[0, 0]","[0.5747686000013346, 1.2744307000011759]",['nextButton'],665835,001,2023-06-06_17h39.07.329,scripted_test,2022.2.5,60.12440942753938,
66,0,66,0,,,,,,images\real\6_003.jpg,images\synthetic\6_003.png,images\synthetic\6_003.png,Food,655.5953095000004,655.5953095000004,0.0825289000003977,655.5953095000004,655.5953095000004,[0.325],[-0.23055555555555557],[1],[0],[0],[9.963526600000478],['images\\synthetic\\6_003.png'],images\synthetic\6_003.png,1,9.963526600000478,665.5926144999994,665.5926144999994,0.03801750000093307,5.0,"[0.5083333333333333, 0.04722222222222222]","[-0.3175925925925926, -0.3907407407407407]","[1, 1]","[0, 0]","[0, 0]","[1.3083049000015308, 2.074258100001316]",['nextButton'],665835,001,2023-06-06_17h39.07.329,scripted_test,2022.2.5,60.12440942753938,
67,0,67,0,,,,,,images\real\8_005.jpeg,images\synthetic\8_005.png,images\synthetic\8_005.png,Landscapes,667.7625511999995,667.7625511999995,0.08168469999873196,667.7625511999995,667.7625511999995,[0.2824074074074074],[-0.20185185185185187],[1],[0],[0],[9.51500759999908],['images\\synthetic\\8_005.png'],images\synthetic\8_005.png,1,9.51500759999908,677.283295700001,677.283295700001,0.010164600000280188,2.0,"[-0.17592592592592593, -0.09537037037037037]","[-0.30648148148148147, -0.375]","[1, 1]","[0, 0]","[0, 0]","[0.6999154999994062, 1.217282099998556]",['nextButton'],665835,001,2023-06-06_17h39.07.329,scripted_test,2022.2.5,60.12440942753938,
68,0,68,0,,,,,,images\real\10_009.jpeg,images\synthetic\10_009.png,images\synthetic\10_009.png,Groups of people,678.6121843000001,678.6121843000001,0.10326899999927264,678.6121843000001,678.6121843000001,[-0.2611111111111111],[-0.1259259259259259],[1],[0],[0],[10.460192300000926],['images\\real\\10_009.jpeg'],images\real\10_009.jpeg,0,10.460192300000926,689.1415405000007,689.1415405000007,0.06738140000015846,5.0,"[0.5185185185185185, -0.02962962962962963]","[-0.2935185185185185, -0.4074074074074074]","[1, 1]","[0, 0]","[0, 0]","[1.5134058000003279, 2.3422572999988915]",['nextButton'],665835,001,2023-06-06_17h39.07.329,scripted_test,2022.2.5,60.12440942753938,
69,0,69,0,,,,,,images\synthetic\6_004.png,images\real\6_004.jpg,images\synthetic\6_004.png,Food,691.6321249000011,691.6321249000011,0.14002110000001267,691.6321249000011,691.6321249000011,[-0.2064814814814815],[-0.15555555555555556],[1],[0],[0],[2.4085118000002694],['images\\synthetic\\6_004.png'],images\synthetic\6_004.png,1,2.4085118000002694,694.0824688000012,694.0824688000012,0.039799300000595395,2.0,"[-0.25092592592592594, 0.011111111111111112]","[-0.32685185185185184, -0.4101851851851852]","[1, 1]","[0, 0]","[0, 0]","[0.801321500000995, 1.972467500001585]",['nextButton'],665835,001,2023-06-06_17h39.07.329,scripted_test,2022.2.5,60.12440942753938,
70,0,70,0,,,,,,images\synthetic\9_002.png,images\real\9_002.jpg,images\synthetic\9_002.png,Sports,696.1411074000007,696.1411074000007,0.08146120000128576,696.1411074000007,696.1411074000007,[-0.11388888888888889],[-0.21296296296296297],[1],[0],[0],[7.226270700000896],['images\\synthetic\\9_002.png'],images\synthetic\9_002.png,1,7.226270700000896,703.4154896,703.4154896,0.047132300000157556,4.0,"[0.23796296296296296, -0.006481481481481481]","[-0.2962962962962963, -0.39351851851851855]","[1, 1]","[0, 0]","[0, 0]","[1.6305912000007083, 2.032447699999466]",['nextButton'],665835,001,2023-06-06_17h39.07.329,scripted_test,2022.2.5,60.12440942753938,
71,0,71,0,,,,,,images\synthetic\6_009.png,images\real\6_009.jpeg,images\synthetic\6_009.png,Food,705.5439977000005,705.5439977000005,0.08838660000037635,705.5439977000005,705.5439977000005,[-0.1685185185185185],[-0.11574074074074074],[1],[0],[0],[6.6745207999993],['images\\synthetic\\6_009.png'],images\synthetic\6_009.png,1,6.6745207999993,712.2629225000001,712.2629225000001,0.04650899999978719,2.0,"[-0.24722222222222223, -0.019444444444444445]","[-0.2972222222222222, -0.4101851851851852]","[1, 1]","[0, 0]","[0, 0]","[3.4459489999990183, 4.145891599999231]",['nextButton'],665835,001,2023-06-06_17h39.07.329,scripted_test,2022.2.5,60.12440942753938,
72,0,72,0,,,,,,images\synthetic\10_012.png,images\real\10_012.jpg,images\synthetic\10_012.png,Groups of people,716.4938954999998,716.4938954999998,0.07445489999918209,716.4938954999998,716.4938954999998,"[-0.019444444444444445, -0.16018518518518518]","[-0.4101851851851852, -0.2861111111111111]","[1, 1]","[0, 0]","[0, 0]","[0.00038329999915731605, 8.525787299999138]",['images\\synthetic\\10_012.png'],images\synthetic\10_012.png,1,0.00038329999915731605,725.0559279999998,725.0559279999998,0.03617649999978312,2.0,[-0.040740740740740744],[-0.4],[1],[0],[0],[1.6706422000006569],['nextButton'],665835,001,2023-06-06_17h39.07.329,scripted_test,2022.2.5,60.12440942753938,
73,0,73,0,,,,,,images\real\6_001.jpeg,images\synthetic\6_001.png,images\synthetic\6_001.png,Food,726.7936984999997,726.7936984999997,0.0603201000012632,726.7936984999997,726.7936984999997,"[-0.040740740740740744, 0.3527777777777778]","[-0.4, -0.13425925925925927]","[1, 1]","[0, 0]","[0, 0]","[0.0004183000000921311, 10.753574000000299]",['images\\synthetic\\6_001.png'],images\synthetic\6_001.png,1,0.0004183000000921311,737.6078792999997,737.6078792999997,0.06161880000036035,5.0,"[0.4981481481481482, 0.032407407407407406]","[-0.29814814814814816, -0.39537037037037037]","[1, 1]","[0, 0]","[0, 0]","[0.8171241000000009, 1.4847465999991982]",['nextButton'],665835,001,2023-06-06_17h39.07.329,scripted_test,2022.2.5,60.12440942753938,
74,0,74,0,,,,,,images\real\3_008.jpeg,images\synthetic\3_008.jpg,images\synthetic\3_008.jpg,Cars,739.1453292999995,739.1453292999995,0.045934900001157075,739.1453292999995,739.1453292999995,"[0.030555555555555555, 0.6083333333333333]","[-0.39537037037037037, -0.19814814814814816]","[1, 1]","[0, 0]","[0, 0]","[0.0004117999997106381, 4.572343699999692]",['images\\synthetic\\3_008.jpg'],images\synthetic\3_008.jpg,1,0.0004117999997106381,743.7322311000007,743.7322311000007,0.014073799999096082,4.0,"[0.225, 0.02962962962962963]","[-0.2953703703703704, -0.3712962962962963]","[1, 1]","[0, 0]","[0, 0]","[1.4075595999984216, 1.8938291999984358]",['nextButton'],665835,001,2023-06-06_17h39.07.329,scripted_test,2022.2.5,60.12440942753938,
75,0,75,0,,,,,,images\real\4_012.jpeg,images\synthetic\4_012.png,images\synthetic\4_012.png,Houses (Exterior),745.7410166000009,745.7410166000009,0.1042611000011675,745.7410166000009,745.7410166000009,[0.5453703703703704],[-0.21666666666666667],[1],[0],[0],[2.0581999000005453],['images\\synthetic\\4_012.png'],images\synthetic\4_012.png,1,2.0581999000005453,747.8386804000002,747.8386804000002,0.04141229999913776,2.0,"[0.0, -0.2537037037037037, 0.027777777777777776]","[-0.3111111111111111, -0.2935185185185185, -0.40925925925925927]","[1, 1, 1]","[0, 0, 0]","[0, 0, 0]","[2.118203199999698, 4.06828250000035, 5.504569500000798]",['nextButton'],665835,001,2023-06-06_17h39.07.329,scripted_test,2022.2.5,60.12440942753938,
76,0,76,0,,,,,,images\synthetic\7_011.png,images\real\7_011.jpg,images\synthetic\7_011.png,Objects,753.421552400001,753.421552400001,0.06790270000055898,753.421552400001,753.421552400001,"[0.027777777777777776, -0.37407407407407406]","[-0.40925925925925927, -0.2759259259259259]","[1, 1]","[0, 0]","[0, 0]","[0.0003679999990708893, 11.942747600000075]",['images\\synthetic\\7_011.png'],images\synthetic\7_011.png,1,0.0003679999990708893,765.3934377999994,765.3934377999994,0.03305410000029951,5.0,"[0.5101851851851852, -0.022222222222222223]","[-0.2962962962962963, -0.4074074074074074]","[1, 1]","[0, 0]","[0, 0]","[1.1265106000009837, 2.8103384000005462]",['nextButton'],665835,001,2023-06-06_17h39.07.329,scripted_test,2022.2.5,60.12440942753938,
77,0,77,0,,,,,,images\real\2_009.jpg,images\synthetic\2_009.png,images\synthetic\2_009.png,People,768.2627821000005,768.2627821000005,0.050926100000651786,768.2627821000005,768.2627821000005,"[-0.022222222222222223, 0.40185185185185185]","[-0.4074074074074074, -0.2518518518518518]","[1, 1]","[0, 0]","[0, 0]","[0.00039590000051248353, 2.6457348999992973]",['images\\synthetic\\2_009.png'],images\synthetic\2_009.png,1,0.00039590000051248353,770.919738300001,770.919738300001,0.011285999999017804,4.0,"[-0.03888888888888889, 0.25925925925925924, 0.03888888888888889]","[-0.29907407407407405, -0.29444444444444445, -0.40925925925925927]","[1, 1, 1]","[0, 0, 0]","[0, 0, 0]","[10.18287269999928, 10.915518299998439, 11.616019600000072]",['nextButton'],665835,001,2023-06-06_17h39.07.329,scripted_test,2022.2.5,60.12440942753938,
78,0,78,0,,,,,,images\real\7_005.jpg,images\synthetic\7_005.png,images\synthetic\7_005.png,Objects,782.5676217,782.5676217,0.029612600001200917,782.5676217,782.5676217,"[0.03888888888888889, 0.5037037037037037]","[-0.40925925925925927, -0.1388888888888889]","[1, 1]","[0, 0]","[0, 0]","[0.0003378000001248438, 2.234424999998737]",['images\\synthetic\\7_005.png'],images\synthetic\7_005.png,1,0.0003378000001248438,784.8131465999995,784.8131465999995,0.008617700001195772,2.0,"[-0.21944444444444444, -0.022222222222222223]","[-0.29444444444444445, -0.3861111111111111]","[1, 1]","[0, 0]","[0, 0]","[2.6695089999993797, 5.623145899999145]",['nextButton'],665835,001,2023-06-06_17h39.07.329,scripted_test,2022.2.5,60.12440942753938,
79,0,79,0,,,,,,images\synthetic\10_011.png,images\real\10_011.jpeg,images\synthetic\10_011.png,Groups of people,790.5553190999999,790.5553190999999,0.10870559999966645,790.5553190999999,790.5553190999999,[0.24537037037037038],[-0.20925925925925926],[1],[0],[0],[12.220745200000238],['images\\real\\10_011.jpeg'],images\real\10_011.jpeg,0,12.220745200000238,802.8465152999997,802.8465152999997,0.068935600000259,3.0,"[-0.025, -0.03981481481481482]","[-0.30833333333333335, -0.39444444444444443]","[1, 1]","[0, 0]","[0, 0]","[0.7218138000007457, 1.4716602000007697]",['nextButton'],665835,001,2023-06-06_17h39.07.329,scripted_test,2022.2.5,60.12440942753938,
80,0,80,0,,,,,,images\real\4_008.png,images\synthetic\4_008.jpg,images\synthetic\4_008.jpg,Houses (Exterior),804.4628537999997,804.4628537999997,0.13704150000012305,804.4628537999997,804.4628537999997,[-0.23981481481481481],[-0.20185185185185187],[1],[0],[0],[12.312695900000108],['images\\real\\4_008.png'],images\real\4_008.png,0,12.312695900000108,816.8929024000008,816.8929024000008,0.10911630000009609,4.0,"[0.24537037037037038, -0.003703703703703704]","[-0.28055555555555556, -0.4064814814814815]","[1, 1]","[0, 0]","[0, 0]","[1.231375699999262, 2.234234199999264]",['nextButton'],665835,001,2023-06-06_17h39.07.329,scripted_test,2022.2.5,60.12440942753938,
81,0,81,0,,,,,,images\synthetic\9_003.png,images\real\9_003.jpg,images\synthetic\9_003.png,Sports,819.2133164999996,819.2133164999996,0.08391659999870171,819.2133164999996,819.2133164999996,"[-0.000925925925925926, -0.3537037037037037]","[-0.4046296296296296, -0.18518518518518517]","[1, 1]","[0, 0]","[0, 0]","[0.0004466999998840038, 6.4764738000012585]",['images\\synthetic\\9_003.png'],images\synthetic\9_003.png,1,0.0004466999998840038,825.7399385000008,825.7399385000008,0.049058599999625585,4.0,"[0.012962962962962963, 0.2537037037037037, -0.006481481481481481]","[-0.2962962962962963, -0.2935185185185185, -0.38333333333333336]","[1, 1, 1]","[0, 0, 0]","[0, 0, 0]","[1.2942631999994774, 2.4448482999996486, 3.394482699999571]",['nextButton'],665835,001,2023-06-06_17h39.07.329,scripted_test,2022.2.5,60.12440942753938,
82,0,82,0,,,,,,images\synthetic\9_005.png,images\real\9_005.jpg,images\synthetic\9_005.png,Sports,829.2081440000002,829.2081440000002,0.06963949999953911,829.2081440000002,829.2081440000002,"[-0.006481481481481481, -0.10462962962962963]","[-0.38333333333333336, -0.2175925925925926]","[1, 1]","[0, 0]","[0, 0]","[0.0003340999992360594, 12.260521700000027]",['images\\synthetic\\9_005.png'],images\synthetic\9_005.png,1,0.0003340999992360594,841.4899449000004,841.4899449000004,0.022268200000326033,5.0,"[0.5064814814814815, 0.017592592592592594]","[-0.28425925925925927, -0.3972222222222222]","[1, 1]","[0, 0]","[0, 0]","[1.371362300000328, 2.0043698999998014]",['nextButton'],665835,001,2023-06-06_17h39.07.329,scripted_test,2022.2.5,60.12440942753938,
83,0,83,0,,,,,,images\synthetic\2_006.png,images\real\2_006.jpg,images\synthetic\2_006.png,People,843.5225893999996,843.5225893999996,0.02239229999941017,843.5225893999996,843.5225893999996,"[0.017592592592592594, -0.1824074074074074]","[-0.3972222222222222, -0.12037037037037036]","[1, 1]","[0, 0]","[0, 0]","[0.0003006999995704973, 2.658204499999556]",['images\\synthetic\\2_006.png'],images\synthetic\2_006.png,1,0.0003006999995704973,846.1889357,846.1889357,0.008469399999739835,1.0,"[-0.5, -0.02962962962962963]","[-0.3148148148148148, -0.39166666666666666]","[1, 1]","[0, 0]","[0, 0]","[1.1043188999992708, 1.8530998999995063]",['nextButton'],665835,001,2023-06-06_17h39.07.329,scripted_test,2022.2.5,60.12440942753938,
84,0,84,0,,,,,,images\real\1_004.jpg,images\synthetic\1_004.png,images\synthetic\1_004.png,Animals,848.0942582000007,848.0942582000007,0.04689270000017132,848.0942582000007,848.0942582000007,"[-0.028703703703703703, 0.3148148148148148]","[-0.39166666666666666, -0.1574074074074074]","[1, 1]","[0, 0]","[0, 0]","[0.000495000000228174, 2.7183747999988555]",['images\\synthetic\\1_004.png'],images\synthetic\1_004.png,1,0.000495000000228174,850.837498500001,850.837498500001,0.02213320000009844,5.0,"[0.4925925925925926, -0.08055555555555556]","[-0.2861111111111111, -0.4009259259259259]","[1, 1]","[0, 0]","[0, 0]","[2.1379974000010407, 2.6889143000007607]",['nextButton'],665835,001,2023-06-06_17h39.07.329,scripted_test,2022.2.5,60.12440942753938,
85,0,85,0,,,,,,images\synthetic\5_006.jpg,images\real\5_006.jpg,images\synthetic\5_006.jpg,Houses (Interior),853.5624148000006,853.5624148000006,0.02986330000021553,853.5624148000006,853.5624148000006,"[-0.08055555555555556, 0.30092592592592593]","[-0.4009259259259259, -0.22777777777777777]","[1, 1]","[0, 0]","[0, 0]","[0.0004090000002179295, 9.75074239999958]",['images\\real\\5_006.jpg'],images\real\5_006.jpg,0,0.0004090000002179295,863.3411030000007,863.3411030000007,0.024382100000366336,5.0,"[0.4861111111111111, 0.012037037037037037]","[-0.29444444444444445, -0.39166666666666666]","[1, 1]","[0, 0]","[0, 0]","[1.0166859999990265, 1.666756799999348]",['nextButton'],665835,001,2023-06-06_17h39.07.329,scripted_test,2022.2.5,60.12440942753938,
86,0,86,0,,,,,,images\real\6_011.jpeg,images\synthetic\6_011.png,images\synthetic\6_011.png,Food,865.0821797000008,865.0821797000008,0.06766310000057274,865.0821797000008,865.0821797000008,[0.7111111111111111],[-0.22685185185185186],[1],[0],[0],[8.613216199999442],['images\\synthetic\\6_011.png'],images\synthetic\6_011.png,1,8.613216199999442,873.7400115,873.7400115,0.04090879999967001,5.0,"[0.48055555555555557, 0.04351851851851852]","[-0.2972222222222222, -0.3768518518518518]","[1, 1]","[0, 0]","[0, 0]","[0.7218810999984271, 1.3371189999998023]",['nextButton'],665835,001,2023-06-06_17h39.07.329,scripted_test,2022.2.5,60.12440942753938,
87,0,87,0,,,,,,images\real\2_003.png,images\synthetic\2_003.png,images\synthetic\2_003.png,People,875.0992700999996,875.0992700999996,0.016896200000701356,875.0992700999996,875.0992700999996,"[0.04351851851851852, 0.49166666666666664]","[-0.3768518518518518, -0.1824074074074074]","[1, 1]","[0, 0]","[0, 0]","[0.00036189999991620425, 1.2607819999993808]",['images\\synthetic\\2_003.png'],images\synthetic\2_003.png,1,0.00036189999991620425,876.3711841000004,876.3711841000004,0.010347500001444132,1.0,"[-0.5046296296296297, 0.004629629629629629]","[-0.29907407407407405, -0.4]","[1, 1]","[0, 0]","[0, 0]","[0.9522189999988768, 1.8832731999991665]",['nextButton'],665835,001,2023-06-06_17h39.07.329,scripted_test,2022.2.5,60.12440942753938,
88,0,88,0,,,,,,images\synthetic\1_001.png,images\real\1_001.jpg,images\synthetic\1_001.png,Animals,878.2773966000004,878.2773966000004,0.019453099999736878,878.2773966000004,878.2773966000004,"[0.004629629629629629, -0.2101851851851852]","[-0.4, -0.18611111111111112]","[1, 1]","[0, 0]","[0, 0]","[0.00030729999889445025, 3.5617734999996173]",['images\\synthetic\\1_001.png'],images\synthetic\1_001.png,1,0.00030729999889445025,881.8621151999996,881.8621151999996,0.018625799999426818,5.0,"[0.5101851851851852, 0.010185185185185186]","[-0.30648148148148147, -0.39444444444444443]","[1, 1]","[0, 0]","[0, 0]","[1.7595962999985204, 2.607998800000132]",['nextButton'],665835,001,2023-06-06_17h39.07.329,scripted_test,2022.2.5,60.12440942753938,
89,0,89,0,,,,,,images\real\5_011.jpeg,images\synthetic\5_011.png,images\synthetic\5_011.png,Houses (Interior),884.6293729000008,884.6293729000008,0.15037519999896176,884.6293729000008,884.6293729000008,[0.45185185185185184],[-0.24537037037037038],[1],[0],[0],[5.265049199999339],['images\\synthetic\\5_011.png'],images\synthetic\5_011.png,1,5.265049199999339,889.9749790000005,889.9749790000005,0.08035019999988435,3.0,"[0.10740740740740741, -0.040740740740740744]","[-0.3175925925925926, -0.4]","[1, 1]","[0, 0]","[0, 0]","[0.8630419000000984, 1.3974963999989996]",['nextButton'],665835,001,2023-06-06_17h39.07.329,scripted_test,2022.2.5,60.12440942753938,
90,0,90,0,,,,,,images\real\6_010.jpeg,images\synthetic\6_010.png,images\synthetic\6_010.png,Food,891.4609720000008,891.4609720000008,0.0764830999996775,891.4609720000008,891.4609720000008,"[-0.040740740740740744, 0.19814814814814816]","[-0.4, -0.22962962962962963]","[1, 1]","[0, 0]","[0, 0]","[0.00037909999991825316, 10.783334100000502]",['images\\synthetic\\6_010.png'],images\synthetic\6_010.png,1,0.00037909999991825316,902.2843946000012,902.2843946000012,0.0372546999988117,5.0,"[0.4638888888888889, 0.053703703703703705]","[-0.2962962962962963, -0.38425925925925924]","[1, 1]","[0, 0]","[0, 0]","[0.7060026999988622, 1.489883700000064]",['nextButton'],665835,001,2023-06-06_17h39.07.329,scripted_test,2022.2.5,60.12440942753938,
91,0,91,0,,,,,,images\synthetic\2_002.png,images\real\2_002.jpg,images\synthetic\2_002.png,People,903.8373169999995,903.8373169999995,0.06019689999993716,903.8373169999995,903.8373169999995,"[0.053703703703703705, 0.5981481481481481]","[-0.38425925925925924, -0.19166666666666668]","[1, 1]","[0, 0]","[0, 0]","[0.00037619999966409523, 7.686633299999812]",['images\\real\\2_002.jpg'],images\real\2_002.jpg,0,0.00037619999966409523,911.5397986000007,911.5397986000007,0.015336299999034964,1.0,"[-0.5314814814814814, -0.046296296296296294]","[-0.2962962962962963, -0.3861111111111111]","[1, 1]","[0, 0]","[0, 0]","[2.2609420999997383, 3.210649900000135]",['nextButton'],665835,001,2023-06-06_17h39.07.329,scripted_test,2022.2.5,60.12440942753938,
92,0,92,0,,,,,,images\synthetic\2_007.jpg,images\real\2_007.jpg,images\synthetic\2_007.jpg,People,914.7640886000008,914.7640886000008,0.009547899999233778,914.7640886000008,914.7640886000008,"[-0.046296296296296294, -0.20462962962962963]","[-0.3861111111111111, -0.175]","[1, 1]","[0, 0]","[0, 0]","[0.0002738999992288882, 7.288202899999305]",['images\\synthetic\\2_007.jpg'],images\synthetic\2_007.jpg,1,0.0002738999992288882,922.0613415999997,922.0613415999997,0.007199399999080924,1.0,"[-0.25277777777777777, -0.45, -0.4648148148148148, -0.018518518518518517]","[-0.31574074074074077, -0.2638888888888889, -0.3055555555555556, -0.38333333333333336]","[1, 1, 1, 1]","[0, 0, 0, 0]","[0, 0, 0, 0]","[1.7036860999996861, 4.0697825999995985, 4.6537946999997075, 5.403256300000066]",['nextButton'],665835,001,2023-06-06_17h39.07.329,scripted_test,2022.2.5,60.12440942753938,
93,0,93,0,,,,,,images\synthetic\3_011.png,images\real\3_011.png,images\synthetic\3_011.png,Cars,927.5301990999997,927.5301990999997,0.059917599999607773,927.5301990999997,927.5301990999997,[-0.26666666666666666],[-0.17592592592592593],[1],[0],[0],[7.204859499999657],['images\\synthetic\\3_011.png'],images\synthetic\3_011.png,1,7.204859499999657,934.7814017000001,934.7814017000001,0.04250580000007176,3.0,"[0.003703703703703704, -0.014814814814814815]","[-0.287962962962963, -0.4]","[1, 1]","[0, 0]","[0, 0]","[0.6839975999992021, 1.2171758999993472]",['nextButton'],665835,001,2023-06-06_17h39.07.329,scripted_test,2022.2.5,60.12440942753938,
94,0,94,0,,,,,,images\real\6_012.jpg,images\synthetic\6_012.png,images\synthetic\6_012.png,Food,936.1333737000004,936.1333737000004,0.12689589999899908,936.1333737000004,936.1333737000004,[0.24166666666666667],[-0.19722222222222222],[1],[0],[0],[12.903747099999237],['images\\synthetic\\6_012.png'],images\synthetic\6_012.png,1,12.903747099999237,949.0801021000007,949.0801021000007,0.04186689999914961,5.0,"[0.48055555555555557, 0.05740740740740741]","[-0.2824074074074074, -0.38981481481481484]","[1, 1]","[0, 0]","[0, 0]","[0.8684527999994316, 1.7501111000001401]",['nextButton'],665835,001,2023-06-06_17h39.07.329,scripted_test,2022.2.5,60.12440942753938,
95,0,95,0,,,,,,images\synthetic\5_012.png,images\real\5_012.jpg,images\synthetic\5_012.png,Houses (Interior),950.9127038000006,950.9127038000006,0.0741373000000749,950.9127038000006,950.9127038000006,"[0.05740740740740741, -0.2814814814814815]","[-0.38981481481481484, -0.24259259259259258]","[1, 1]","[0, 0]","[0, 0]","[0.0004121999991184566, 10.158785600000556]",['images\\synthetic\\5_012.png'],images\synthetic\5_012.png,1,0.0004121999991184566,961.0938256000009,961.0938256000009,0.022494700000606827,4.0,"[0.2962962962962963, 0.044444444444444446]","[-0.30833333333333335, -0.3990740740740741]","[1, 1]","[0, 0]","[0, 0]","[0.9198488000001817, 2.318334900000991]",['nextButton'],665835,001,2023-06-06_17h39.07.329,scripted_test,2022.2.5,60.12440942753938,
96,0,96,0,,,,,,images\synthetic\3_009.jpg,images\real\3_009.png,images\synthetic\3_009.jpg,Cars,963.5575884000009,963.5575884000009,0.13538900000094145,963.5575884000009,963.5575884000009,[-0.1935185185185185],[-0.20277777777777778],[1],[0],[0],[14.678849200001423],['images\\synthetic\\3_009.jpg'],images\synthetic\3_009.jpg,1,14.678849200001423,978.2570792999995,978.2570792999995,0.023163100000601844,3.0,"[0.5111111111111111, -0.08425925925925926, 0.025]","[-0.28888888888888886, -0.27685185185185185, -0.4185185185185185]","[1, 1, 1]","[0, 0, 0]","[0, 0, 0]","[1.3867659000006824, 3.5525648000002548, 6.801376100000198]",['nextButton'],665835,001,2023-06-06_17h39.07.329,scripted_test,2022.2.5,60.12440942753938,
97,0,97,0,,,,,,images\real\1_006.jpg,images\synthetic\1_006.png,images\synthetic\1_006.png,Animals,985.1080567999998,985.1080567999998,0.042444000000614324,985.1080567999998,985.1080567999998,"[0.025, 0.32314814814814813]","[-0.4185185185185185, -0.23055555555555557]","[1, 1]","[0, 0]","[0, 0]","[0.00027459999910206534, 7.6075426999996125]",['images\\synthetic\\1_006.png'],images\synthetic\1_006.png,1,0.00027459999910206534,992.7568802000005,992.7568802000005,0.041574999999284046,5.0,"[0.41759259259259257, 0.09166666666666666]","[-0.30462962962962964, -0.3851851851851852]","[1, 1]","[0, 0]","[0, 0]","[3.1166057999998884, 3.917753800000355]",['nextButton'],665835,001,2023-06-06_17h39.07.329,scripted_test,2022.2.5,60.12440942753938,
98,0,98,0,,,,,,images\synthetic\7_004.png,images\real\7_004.jpg,images\synthetic\7_004.png,Objects,996.7560690000009,996.7560690000009,0.07410180000078981,996.7560690000009,996.7560690000009,[0.41203703703703703],[-0.14907407407407408],[1],[0],[0],[12.087749000000258],['images\\real\\7_004.jpg'],images\real\7_004.jpg,0,12.087749000000258,1008.8712132,1008.8712132,0.02480420000028971,5.0,"[0.48148148148148145, -0.021296296296296296]","[-0.2953703703703704, -0.3990740740740741]","[1, 1]","[0, 0]","[0, 0]","[1.452840699999797, 2.004276799998479]",['nextButton'],665835,001,2023-06-06_17h39.07.329,scripted_test,2022.2.5,60.12440942753938,
99,0,99,0,,,,,,images\synthetic\1_003.png,images\real\1_003.jpg,images\synthetic\1_003.png,Animals,1011.0325381000002,1011.0325381000002,0.14893060000031255,1011.0325381000002,1011.0325381000002,[0.5611111111111111],[-0.275],[1],[0],[0],[10.463820499999201],['images\\real\\1_003.jpg'],images\real\1_003.jpg,0,10.463820499999201,1021.5640456000001,1021.5640456000001,0.06777440000041679,5.0,"[0.4981481481481482, -0.06574074074074074]","[-0.3175925925925926, -0.41203703703703703]","[1, 1]","[0, 0]","[0, 0]","[0.6578465000002325, 2.058438699999897]",['nextButton'],665835,001,2023-06-06_17h39.07.329,scripted_test,2022.2.5,60.12440942753938,
100,0,100,0,,,,,,images\synthetic\4_007.jpg,images\real\4_007.jpg,images\synthetic\4_007.jpg,Houses (Exterior),1023.7048544000008,1023.7048544000008,0.07471869999972114,1023.7048544000008,1023.7048544000008,[-0.14074074074074075],[-0.2175925925925926],[1],[0],[0],[6.19237190000058],['images\\synthetic\\4_007.jpg'],images\synthetic\4_007.jpg,1,6.19237190000058,1029.925131600001,1029.925131600001,0.026649599998563644,5.0,"[0.5185185185185185, -0.04814814814814815]","[-0.2833333333333333, -0.3907407407407407]","[1, 1]","[0, 0]","[0, 0]","[1.230949300001157, 2.500605400000495]",['nextButton'],665835,001,2023-06-06_17h39.07.329,scripted_test,2022.2.5,60.12440942753938,
101,0,101,0,,,,,,images\synthetic\6_007.png,images\real\6_007.jpg,images\synthetic\6_007.png,Food,1032.553325500001,1032.553325500001,0.12175700000079814,1032.553325500001,1032.553325500001,[-0.2861111111111111],[-0.1675925925925926],[1],[0],[0],[8.173376200000348],['images\\synthetic\\6_007.png'],images\synthetic\6_007.png,1,8.173376200000348,1040.7360843000006,1040.7360843000006,0.011788300000262097,5.0,"[0.5055555555555555, 0.024074074074074074]","[-0.29907407407407405, -0.39444444444444443]","[1, 1]","[0, 0]","[0, 0]","[1.5138354999999137, 2.2472232000000076]",['nextButton'],665835,001,2023-06-06_17h39.07.329,scripted_test,2022.2.5,60.12440942753938,
102,0,102,0,,,,,,images\synthetic\1_002.png,images\real\1_002.jpg,images\synthetic\1_002.png,Animals,1043.0173692000008,1043.0173692000008,0.026290699999663047,1043.0173692000008,1043.0173692000008,"[0.024074074074074074, -0.2490740740740741]","[-0.39444444444444443, -0.18981481481481483]","[1, 1]","[0, 0]","[0, 0]","[0.00036689999978989363, 3.9537911000006716]",['images\\synthetic\\1_002.png'],images\synthetic\1_002.png,1,0.00036689999978989363,1046.9922987999998,1046.9922987999998,0.02070559999992838,3.0,"[-0.011111111111111112, -0.03148148148148148]","[-0.31296296296296294, -0.4064814814814815]","[1, 1]","[0, 0]","[0, 0]","[0.7067179999994551, 1.0741438999993989]",['nextButton'],665835,001,2023-06-06_17h39.07.329,scripted_test,2022.2.5,60.12440942753938,
103,0,103,0,,,,,,images\synthetic\1_008.png,images\real\1_008.jpg,images\synthetic\1_008.png,Animals,1048.1122125000002,1048.1122125000002,0.03989660000115691,1048.1122125000002,1048.1122125000002,"[-0.03148148148148148, -0.23333333333333334]","[-0.4064814814814815, -0.24166666666666667]","[1, 1]","[0, 0]","[0, 0]","[0.0003946999986510491, 6.758424300000115]",['images\\synthetic\\1_008.png'],images\synthetic\1_008.png,1,0.0003946999986510491,1054.8956610000005,1054.8956610000005,0.023480200001358753,3.0,"[0.07777777777777778, 0.012962962962962963, -0.005555555555555556]","[-0.33240740740740743, -0.31203703703703706, -0.40925925925925927]","[1, 1, 1]","[0, 0, 0]","[0, 0, 0]","[0.7525836999993771, 1.2200828000004549, 1.65218939999977]",['nextButton'],665835,001,2023-06-06_17h39.07.329,scripted_test,2022.2.5,60.12440942753938,
104,0,104,0,,,,,,images\synthetic\8_001.png,images\real\8_001.jpeg,images\synthetic\8_001.png,Landscapes,1056.655169400001,1056.655169400001,0.09959519999938493,1056.655169400001,1056.655169400001,[-0.19722222222222222],[-0.21666666666666667],[1],[0],[0],[1.8495620999983657],['images\\synthetic\\8_001.png'],images\synthetic\8_001.png,1,1.8495620999983657,1058.561219000001,1058.561219000001,0.05537890000050538,1.0,"[-0.5166666666666667, 0.004629629629629629]","[-0.2972222222222222, -0.4009259259259259]","[1, 1]","[0, 0]","[0, 0]","[0.8376275000009628, 1.8539443999998184]",['nextButton'],665835,001,2023-06-06_17h39.07.329,scripted_test,2022.2.5,60.12440942753938,
105,0,105,0,,,,,,images\synthetic\4_001.png,images\real\4_001.jpeg,images\synthetic\4_001.png,Houses (Exterior),1060.4826642999997,1060.4826642999997,0.05986670000129379,1060.4826642999997,1060.4826642999997,"[0.004629629629629629, -0.1712962962962963]","[-0.4009259259259259, -0.19814814814814816]","[1, 1]","[0, 0]","[0, 0]","[0.0004349999999249121, 3.2064137999986997]",['images\\synthetic\\4_001.png'],images\synthetic\4_001.png,1,0.0004349999999249121,1063.6973111999996,1063.6973111999996,0.009354499999972177,3.0,"[-0.010185185185185186, -0.03425925925925926]","[-0.2962962962962963, -0.37222222222222223]","[1, 1]","[0, 0]","[0, 0]","[1.5344614000005095, 1.916081800000029]",['nextButton'],665835,001,2023-06-06_17h39.07.329,scripted_test,2022.2.5,60.12440942753938,
106,0,106,0,,,,,,images\synthetic\5_003.jpg,images\real\5_003.jpeg,images\synthetic\5_003.jpg,Houses (Interior),1065.6506341000004,1065.6506341000004,0.031844200000705314,1065.6506341000004,1065.6506341000004,"[-0.03425925925925926, -0.14074074074074075]","[-0.37222222222222223, -0.3074074074074074]","[1, 1]","[0, 0]","[0, 0]","[0.00026790000083565246, 3.0838831000000937]",['images\\synthetic\\5_003.jpg'],images\synthetic\5_003.jpg,1,0.00026790000083565246,1068.7426815,1068.7426815,0.004777000000103726,3.0,"[0.006481481481481481, -0.04351851851851852]","[-0.30092592592592593, -0.4148148148148148]","[1, 1]","[0, 0]","[0, 0]","[2.875942100001339, 3.8884353000012197]",['nextButton'],665835,001,2023-06-06_17h39.07.329,scripted_test,2022.2.5,60.12440942753938,
107,0,107,0,,,,,,images\synthetic\8_003.png,images\real\8_003.jpeg,images\synthetic\8_003.png,Landscapes,1072.6662049000006,1072.6662049000006,0.03033819999836851,1072.6662049000006,1072.6662049000006,"[-0.04351851851851852, 0.375]","[-0.4148148148148148, -0.25]","[1, 1]","[0, 0]","[0, 0]","[0.0002731000004132511, 9.618932700001096]",['images\\real\\8_003.jpeg'],images\real\8_003.jpeg,0,0.0002731000004132511,1082.309856400001,1082.309856400001,0.02142719999937981,4.0,"[0.23981481481481481, 0.023148148148148147]","[-0.32037037037037036, -0.4027777777777778]","[1, 1]","[0, 0]","[0, 0]","[8.687068700000964, 9.369028200000685]",['nextButton'],665835,001,2023-06-06_17h39.07.329,scripted_test,2022.2.5,60.12440942753938,
108,0,108,0,,,,,,images\synthetic\2_004.png,images\real\2_004.jpeg,images\synthetic\2_004.png,People,1091.7412378999998,1091.7412378999998,0.055088099999920814,1091.7412378999998,1091.7412378999998,"[0.023148148148148147, -0.27314814814814814]","[-0.4027777777777778, -0.15833333333333333]","[1, 1]","[0, 0]","[0, 0]","[0.0003773000007640803, 1.2944965999995475]",['images\\synthetic\\2_004.png'],images\synthetic\2_004.png,1,0.0003773000007640803,1093.0495048000012,1093.0495048000012,0.013857699999789475,1.0,"[-0.5231481481481481, -0.041666666666666664]","[-0.32592592592592595, -0.4046296296296296]","[1, 1]","[0, 0]","[0, 0]","[0.6614549000005354, 1.4612173999994411]",['nextButton'],665835,001,2023-06-06_17h39.07.329,scripted_test,2022.2.5,60.12440942753938,
109,0,109,0,,,,,,images\real\9_004.jpeg,images\synthetic\9_004.png,images\synthetic\9_004.png,Sports,1094.620928800001,1094.620928800001,0.10372099999949569,1094.620928800001,1094.620928800001,[0.4388888888888889],[-0.09166666666666666],[1],[0],[0],[2.8950267000000167],['images\\synthetic\\9_004.png'],images\synthetic\9_004.png,1,2.8950267000000167,1097.5580554000007,1097.5580554000007,0.0404871999999159,2.0,"[-0.21481481481481482, 0.004629629629629629]","[-0.2962962962962963, -0.37222222222222223]","[1, 1]","[0, 0]","[0, 0]","[3.4858669999994163, 3.9243297999983042]",['nextButton'],665835,001,2023-06-06_17h39.07.329,scripted_test,2022.2.5,60.12440942753938,
110,0,110,0,,,,,,images\synthetic\6_006.png,images\real\6_006.jpeg,images\synthetic\6_006.png,Food,1101.547551900001,1101.547551900001,0.057643000000098255,1101.547551900001,1101.547551900001,"[0.005555555555555556, -0.13796296296296295]","[-0.37222222222222223, -0.19537037037037036]","[1, 1]","[0, 0]","[0, 0]","[0.00035799999932351056, 11.440233100000114]",['images\\synthetic\\6_006.png'],images\synthetic\6_006.png,1,0.00035799999932351056,1113.0254284000002,1113.0254284000002,0.03909100000055332,5.0,"[0.4925925925925926, 0.013888888888888888]","[-0.2953703703703704, -0.4074074074074074]","[1, 1]","[0, 0]","[0, 0]","[1.9177990999996837, 2.51606129999891]",['nextButton'],665835,001,2023-06-06_17h39.07.329,scripted_test,2022.2.5,60.12440942753938,
111,0,111,0,,,,,,images\real\9_011.jpeg,images\synthetic\9_011.png,images\synthetic\9_011.png,Sports,1115.6776480999997,1115.6776480999997,0.12762840000141296,1115.6776480999997,1115.6776480999997,[0.5111111111111111],[-0.14537037037037037],[1],[0],[0],[5.335376299999552],['images\\synthetic\\9_011.png'],images\synthetic\9_011.png,1,5.335376299999552,1121.0748003999997,1121.0748003999997,0.060800399998697685,4.0,"[0.2324074074074074, 0.30277777777777776, 0.09907407407407408]","[-0.3388888888888889, -0.2861111111111111, -0.3824074074074074]","[1, 1, 1]","[0, 0, 0]","[0, 0, 0]","[0.6502785999982734, 1.017364199999065, 1.6009899999990012]",['nextButton'],665835,001,2023-06-06_17h39.07.329,scripted_test,2022.2.5,60.12440942753938,
112,0,112,0,,,,,,images\synthetic\9_009.png,images\real\9_009.jpg,images\synthetic\9_009.png,Sports,1122.7623973000009,1122.7623973000009,0.07659590000002936,1122.7623973000009,1122.7623973000009,"[0.025, -0.28888888888888886]","[-0.3972222222222222, -0.2222222222222222]","[1, 1]","[0, 0]","[0, 0]","[0.22188090000054217, 3.5868016999993415]",['images\\synthetic\\9_009.png'],images\synthetic\9_009.png,1,0.22188090000054217,1126.3866083000012,1126.3866083000012,0.04277449999972305,1.0,"[-0.4759259259259259, -0.011111111111111112]","[-0.30185185185185187, -0.40925925925925927]","[1, 1]","[0, 0]","[0, 0]","[0.7852125999997952, 1.4687610999990284]",['nextButton'],665835,001,2023-06-06_17h39.07.329,scripted_test,2022.2.5,60.12440942753938,
113,0,113,0,,,,,,images\synthetic\2_013.png,images\real\2_013.jpeg,images\synthetic\2_013.png,People,1127.9410100000005,1127.9410100000005,0.07776750000084576,1127.9410100000005,1127.9410100000005,[-0.13333333333333333],[-0.2222222222222222],[1],[0],[0],[2.7711546999998973],['images\\synthetic\\2_013.png'],images\synthetic\2_013.png,1,2.7711546999998973,1130.7538378000008,1130.7538378000008,0.04077529999995022,2.0,"[-0.4324074074074074, -0.2324074074074074, -0.03981481481481482]","[-0.2916666666666667, -0.3037037037037037, -0.4074074074074074]","[1, 1, 1]","[0, 0, 0]","[0, 0, 0]","[1.3355374000002485, 1.934552700000495, 2.4178513000006205]",['nextButton'],665835,001,2023-06-06_17h39.07.329,scripted_test,2022.2.5,60.12440942753938,
114,0,114,0,,,,,,images\synthetic\8_010.png,images\real\8_010.jpeg,images\synthetic\8_010.png,Landscapes,1133.2722952000004,1133.2722952000004,0.08899879999989935,1133.2722952000004,1133.2722952000004,[0.3824074074074074],[-0.2657407407407407],[1],[0],[0],[10.892229600000064],['images\\real\\8_010.jpeg'],images\real\8_010.jpeg,0,10.892229600000064,1144.2455221,1144.2455221,0.08292269999947166,4.0,"[0.2722222222222222, 0.03888888888888889]","[-0.3074074074074074, -0.3824074074074074]","[1, 1]","[0, 0]","[0, 0]","[1.4939830000002985, 1.9110710000004474]",['nextButton'],665835,001,2023-06-06_17h39.07.329,scripted_test,2022.2.5,60.12440942753938,
115,0,115,0,,,,,,images\synthetic\6_008.png,images\real\6_008.jpeg,images\synthetic\6_008.png,Food,1146.2356094000006,1146.2356094000006,0.07303890000002866,1146.2356094000006,1146.2356094000006,[-0.36944444444444446],[-0.19166666666666668],[1],[0],[0],[9.023723100001007],['images\\synthetic\\6_008.png'],images\synthetic\6_008.png,1,9.023723100001007,1155.3084287000001,1155.3084287000001,0.04651620000004186,4.0,"[0.29907407407407405, -0.017592592592592594]","[-0.3074074074074074, -0.3888888888888889]","[1, 1]","[0, 0]","[0, 0]","[1.5945096000014019, 2.5953497999998945]",['nextButton'],665835,001,2023-06-06_17h39.07.329,scripted_test,2022.2.5,60.12440942753938,
,,,,,,,,,,,,,,,,,,,,,,,,,,,,,,,,,,,,,,,665835,001,2023-06-06_17h39.07.329,scripted_test,2022.2.5,60.12440942753938,
