trialsTest.thisRepN,trialsTest.thisTrialN,trialsTest.thisN,trialsTest.thisIndex,text_instr.started,forms2test.started,nameTextBox.text,ageTextBox.text,genderTextBox.text,ImageFile1 ,ImageFile2,SintheticImageFile ,ImagesCategory,stimulus_1.started,stimulus_2.started,mouse.started,countdown_string.started,select_ai_synthetic_image.started,mouse.x,mouse.y,mouse.leftButton,mouse.midButton,mouse.rightButton,mouse.time,mouse.clicked_image,selectedImage,correctAns,decisionTime,chosen_image.started,nextButton.started,mouse_2.started,rating.response,mouse_2.x,mouse_2.y,mouse_2.leftButton,mouse_2.midButton,mouse_2.rightButton,mouse_2.time,mouse_2.clicked_name,participant,session,date,expName,psychopyVersion,frameRate,
,,,,13.457753200000298,,,,,,,,,,,,,,,,,,,,,,,,,,,,,,,,,,,870106,001,2023-06-06_17h09.51.007,scripted_test,2022.2.5,59.99077341928556,
,,,,,25.36789680000038,Tiago Apura,21,Male,,,,,,,,,,,,,,,,,,,,,,,,,,,,,,,870106,001,2023-06-06_17h09.51.007,scripted_test,2022.2.5,59.99077341928556,
0,0,0,0,,,,,,images\real\2_006.jpg,images\synthetic\2_006.png,images\synthetic\2_006.png,People,72.3513167000001,72.3513167000001,0.04276430000027176,72.3513167000001,72.3513167000001,[0.2361111111111111],[-0.07037037037037037],[1],[0],[0],[7.122218200000134],['images\\synthetic\\2_006.png'],images\synthetic\2_006.png,1,7.122218200000134,79.48920800000087,79.48920800000087,0.010184299999309587,3.0,"[-0.019444444444444445, 0.05740740740740741]","[-0.3037037037037037, -0.40185185185185185]","[1, 1]","[0, 0]","[0, 0]","[39.8635205999999, 43.92490919999909]",['nextButton'],870106,001,2023-06-06_17h09.51.007,scripted_test,2022.2.5,59.99077341928556,
1,0,1,0,,,,,,images\synthetic\8_006.png,images\real\8_006.jpeg,images\synthetic\8_006.png,Landscapes,123.49462550000135,123.49462550000135,0.07749309999962861,123.49462550000135,123.49462550000135,[-0.3611111111111111],[0.03518518518518519],[1],[0],[0],[7.337173399999301],['images\\synthetic\\8_006.png'],images\synthetic\8_006.png,1,7.337173399999301,130.86737560000074,130.86737560000074,0.03462089999993623,4.0,"[0.24259259259259258, 0.018518518518518517]","[-0.30277777777777776, -0.412962962962963]","[1, 1]","[0, 0]","[0, 0]","[5.228982000000542, 12.6569314999997]",['nextButton'],870106,001,2023-06-06_17h09.51.007,scripted_test,2022.2.5,59.99077341928556,
2,0,2,0,,,,,,images\real\1_009.jpg,images\synthetic\1_009.png,images\synthetic\1_009.png,Animals,143.58571870000014,143.58571870000014,0.054768299998613656,143.58571870000014,143.58571870000014,"[0.018518518518518517, -0.3962962962962963]","[-0.412962962962963, 0.016666666666666666]","[1, 1]","[0, 0]","[0, 0]","[0.00035930000012740493, 2.7924526000006153]",['images\\real\\1_009.jpg'],images\real\1_009.jpg,0,0.00035930000012740493,146.38964530000158,146.38964530000158,0.010960400000840309,2.0,"[-0.2490740740740741, 0.025]","[-0.30277777777777776, -0.39166666666666666]","[1, 1]","[0, 0]","[0, 0]","[7.799231899998631, 10.099137699999119]",['nextButton'],870106,001,2023-06-06_17h09.51.007,scripted_test,2022.2.5,59.99077341928556,
3,0,3,0,,,,,,images\real\8_001.jpeg,images\synthetic\8_001.png,images\synthetic\8_001.png,Landscapes,156.58011100000112,156.58011100000112,0.0828111999999237,156.58011100000112,156.58011100000112,[0.4925925925925926],[0.04722222222222222],[1],[0],[0],[7.818868800000928],['images\\synthetic\\8_001.png'],images\synthetic\8_001.png,1,7.818868800000928,164.44443769999998,164.44443769999998,0.045538000000306056,3.0,"[0.003703703703703704, 0.010185185185185186]","[-0.29814814814814816, -0.4]","[1, 1]","[0, 0]","[0, 0]","[4.360710900000413, 8.693444999998974]",['nextButton'],870106,001,2023-06-06_17h09.51.007,scripted_test,2022.2.5,59.99077341928556,
4,0,4,0,,,,,,images\synthetic\9_001.png,images\real\9_001.jpg,images\synthetic\9_001.png,Sports,173.2283746000012,173.2283746000012,0.08147879999887664,173.2283746000012,173.2283746000012,[-0.42962962962962964],[-0.05092592592592592],[1],[0],[0],[7.479934900000444],['images\\synthetic\\9_001.png'],images\synthetic\9_001.png,1,7.479934900000444,180.75514440000006,180.75514440000006,0.046704699998372234,5.0,"[0.2712962962962963, 0.48703703703703705, 0.001851851851851852]","[-0.30462962962962964, -0.2972222222222222, -0.4064814814814815]","[1, 1, 1]","[0, 0, 0]","[0, 0, 0]","[1.7480660999990505, 4.731242500000008, 7.1988039999996545]",['nextButton'],870106,001,2023-06-06_17h09.51.007,scripted_test,2022.2.5,59.99077341928556,
5,0,5,0,,,,,,images\synthetic\9_004.png,images\real\9_004.jpeg,images\synthetic\9_004.png,Sports,188.0397034000016,188.0397034000016,0.07816789999924367,188.0397034000016,188.0397034000016,[-0.28055555555555556],[-0.07592592592592592],[1],[0],[0],[6.568236200000683],['images\\synthetic\\9_004.png'],images\synthetic\9_004.png,1,6.568236200000683,194.6474683000015,194.6474683000015,0.0394202999996196,4.0,"[0.22870370370370371, 0.04722222222222222]","[-0.3074074074074074, -0.3990740740740741]","[1, 1]","[0, 0]","[0, 0]","[1.2703242999996291, 3.1029240999996546]",['nextButton'],870106,001,2023-06-06_17h09.51.007,scripted_test,2022.2.5,59.99077341928556,
6,0,6,0,,,,,,images\synthetic\7_001.png,images\real\7_001.jpg,images\synthetic\7_001.png,Objects,197.82246550000127,197.82246550000127,0.06513989999984915,197.82246550000127,197.82246550000127,"[0.04722222222222222, -0.24074074074074073]","[-0.3990740740740741, -0.1037037037037037]","[1, 1]","[0, 0]","[0, 0]","[0.0002755999994406011, 8.255916599999182]",['images\\synthetic\\7_001.png'],images\synthetic\7_001.png,1,0.0002755999994406011,206.1332265000001,206.1332265000001,0.05371770000056131,4.0,"[-0.013888888888888888, 0.25462962962962965, 0.032407407407407406]","[-0.32222222222222224, -0.29907407407407405, -0.4046296296296296]","[1, 1, 1]","[0, 0, 0]","[0, 0, 0]","[2.1178196000000753, 3.1695546000009927, 3.9163845000002766]",['nextButton'],870106,001,2023-06-06_17h09.51.007,scripted_test,2022.2.5,59.99077341928556,
7,0,7,0,,,,,,images\synthetic\5_001.png,images\real\5_001.jpg,images\synthetic\5_001.png,Houses (Interior),210.1551098,210.1551098,0.09610720000091533,210.1551098,210.1551098,[-0.3],[-0.11481481481481481],[1],[0],[0],[7.189791400000104],['images\\synthetic\\5_001.png'],images\synthetic\5_001.png,1,7.189791400000104,217.35889430000134,217.35889430000134,0.01644060000035097,5.0,"[0.49722222222222223, 0.018518518518518517]","[-0.3138888888888889, -0.39814814814814814]","[1, 1]","[0, 0]","[0, 0]","[2.0110493000011047, 4.023040000000037]",['nextButton'],870106,001,2023-06-06_17h09.51.007,scripted_test,2022.2.5,59.99077341928556,
8,0,8,0,,,,,,images\synthetic\6_005.png,images\real\6_005.jpg,images\synthetic\6_005.png,Food,221.52779800000098,221.52779800000098,0.13242209999953047,221.52779800000098,221.52779800000098,[-0.3638888888888889],[-0.13055555555555556],[1],[0],[0],[4.496753600000375],['images\\synthetic\\6_005.png'],images\synthetic\6_005.png,1,4.496753600000375,226.06045040000026,226.06045040000026,0.03991709999900195,4.0,"[0.2564814814814815, -0.022222222222222223]","[-0.3111111111111111, -0.3925925925925926]","[1, 1]","[0, 0]","[0, 0]","[4.986871500001143, 6.3374897000012425]",['nextButton'],870106,001,2023-06-06_17h09.51.007,scripted_test,2022.2.5,59.99077341928556,
9,0,9,0,,,,,,images\real\6_007.jpg,images\synthetic\6_007.png,images\synthetic\6_007.png,Food,232.52192130000003,232.52192130000003,0.11374889999933657,232.52192130000003,232.52192130000003,[0.40185185185185185],[-0.011111111111111112],[1],[0],[0],[5.965875900001265],['images\\synthetic\\6_007.png'],images\synthetic\6_007.png,1,5.965875900001265,238.49596470000142,238.49596470000142,0.01193289999901026,5.0,"[0.487962962962963, 0.005555555555555556]","[-0.29814814814814816, -0.4101851851851852]","[1, 1]","[0, 0]","[0, 0]","[1.5822987999999896, 17.56304210000053]",['nextButton'],870106,001,2023-06-06_17h09.51.007,scripted_test,2022.2.5,59.99077341928556,
10,0,10,0,,,,,,images\real\7_011.jpg,images\synthetic\7_011.png,images\synthetic\7_011.png,Objects,256.14325200000167,256.14325200000167,0.0754041000000143,256.14325200000167,256.14325200000167,[0.31574074074074077],[-0.06388888888888888],[1],[0],[0],[8.339338100000532],['images\\synthetic\\7_011.png'],images\synthetic\7_011.png,1,8.339338100000532,264.51823500000137,264.51823500000137,0.03526450000026671,4.0,"[0.2490740740740741, 0.027777777777777776]","[-0.30925925925925923, -0.38425925925925924]","[1, 1]","[0, 0]","[0, 0]","[11.775728999999046, 12.512945200000104]",['nextButton'],870106,001,2023-06-06_17h09.51.007,scripted_test,2022.2.5,59.99077341928556,
11,0,11,0,,,,,,images\synthetic\2_004.png,images\real\2_004.jpeg,images\synthetic\2_004.png,People,277.0868117000009,277.0868117000009,0.04886339999939082,277.0868117000009,277.0868117000009,"[0.027777777777777776, -0.22407407407407406]","[-0.38425925925925924, -0.17407407407407408]","[1, 1]","[0, 0]","[0, 0]","[0.0004033999994135229, 8.091996499999368]",['images\\synthetic\\2_004.png'],images\synthetic\2_004.png,1,0.0004033999994135229,285.1930291000008,285.1930291000008,0.014611900000090827,3.0,"[-0.011111111111111112, 0.03148148148148148]","[-0.3101851851851852, -0.4074074074074074]","[1, 1]","[0, 0]","[0, 0]","[2.1958372999997664, 5.662386699999843]",['nextButton'],870106,001,2023-06-06_17h09.51.007,scripted_test,2022.2.5,59.99077341928556,
12,0,12,0,,,,,,images\real\7_007.jpeg,images\synthetic\7_007.png,images\synthetic\7_007.png,Objects,290.98765750000166,290.98765750000166,0.12174559999948542,290.98765750000166,290.98765750000166,[0.37962962962962965],[-0.023148148148148147],[1],[0],[0],[4.3077364999990095],['images\\synthetic\\7_007.png'],images\synthetic\7_007.png,1,4.3077364999990095,295.3444107000014,295.3444107000014,0.05049630000030447,5.0,"[0.5, 0.037037037037037035]","[-0.3101851851851852, -0.387037037037037]","[1, 1]","[0, 0]","[0, 0]","[0.9764624999988882, 2.0275332999990496]",['nextButton'],870106,001,2023-06-06_17h09.51.007,scripted_test,2022.2.5,59.99077341928556,
13,0,13,0,,,,,,images\real\5_010.jpeg,images\synthetic\5_010.jpg,images\synthetic\5_010.jpg,Houses (Interior),297.43046890000005,297.43046890000005,0.04963870000028692,297.43046890000005,297.43046890000005,"[0.037037037037037035, 0.4]","[-0.387037037037037, -0.11018518518518519]","[1, 1]","[0, 0]","[0, 0]","[0.00027799999952549115, 2.531230999999025]",['images\\synthetic\\5_010.jpg'],images\synthetic\5_010.jpg,1,0.00027799999952549115,299.98016740000094,299.98016740000094,0.018721399999776622,4.0,"[0.27037037037037037, 0.04814814814814815]","[-0.3074074074074074, -0.4046296296296296]","[1, 1]","[0, 0]","[0, 0]","[7.574955300000511, 8.540351100000407]",['nextButton'],870106,001,2023-06-06_17h09.51.007,scripted_test,2022.2.5,59.99077341928556,
14,0,14,0,,,,,,images\real\8_009.jpeg,images\synthetic\8_009.png,images\synthetic\8_009.png,Landscapes,308.57582020000154,308.57582020000154,0.049155500000779284,308.57582020000154,308.57582020000154,[-0.3592592592592593],[-0.044444444444444446],[1],[0],[0],[4.448555799999667],['images\\real\\8_009.jpeg'],images\real\8_009.jpeg,0,4.448555799999667,313.04833940000026,313.04833940000026,0.019502099999954225,5.0,"[0.5018518518518519, 0.024074074074074074]","[-0.30462962962962964, -0.3861111111111111]","[1, 1]","[0, 0]","[0, 0]","[8.639757400000235, 9.688858800000162]",['nextButton'],870106,001,2023-06-06_17h09.51.007,scripted_test,2022.2.5,59.99077341928556,
15,0,15,0,,,,,,images\real\1_008.jpg,images\synthetic\1_008.png,images\synthetic\1_008.png,Animals,322.7930257000007,322.7930257000007,0.05313910000040778,322.7930257000007,322.7930257000007,[0.39537037037037037],[-0.08055555555555556],[1],[0],[0],[4.982569499999954],['images\\synthetic\\1_008.png'],images\synthetic\1_008.png,1,4.982569499999954,327.8088271000015,327.8088271000015,0.03170749999844702,4.0,"[0.27314814814814814, 0.010185185185185186]","[-0.2962962962962963, -0.4]","[1, 1]","[0, 0]","[0, 0]","[8.673732299999756, 13.773089199999959]",['nextButton'],870106,001,2023-06-06_17h09.51.007,scripted_test,2022.2.5,59.99077341928556,
16,0,16,0,,,,,,images\synthetic\3_001.png,images\real\3_001.jpeg,images\synthetic\3_001.png,Cars,341.84584200000063,341.84584200000063,0.2531968000002962,341.84584200000063,341.84584200000063,[-0.3388888888888889],[-0.06388888888888888],[1],[0],[0],[6.147778099999414],['images\\synthetic\\3_001.png'],images\synthetic\3_001.png,1,6.147778099999414,348.1571847000014,348.1571847000014,0.16268719999970926,5.0,"[0.5055555555555555, -0.008333333333333333]","[-0.30185185185185187, -0.4101851851851852]","[1, 1]","[0, 0]","[0, 0]","[2.7669926999988093, 5.47757509999974]",['nextButton'],870106,001,2023-06-06_17h09.51.007,scripted_test,2022.2.5,59.99077341928556,
17,0,17,0,,,,,,images\synthetic\2_010.png,images\real\2_010.jpeg,images\synthetic\2_010.png,People,353.75384550000126,353.75384550000126,0.1152736999993067,353.75384550000126,353.75384550000126,[0.42777777777777776],[-0.01574074074074074],[1],[0],[0],[4.96793389999948],['images\\real\\2_010.jpeg'],images\real\2_010.jpeg,0,4.96793389999948,358.8009182000005,358.8009182000005,0.07876050000049872,5.0,"[0.5074074074074074, -0.021296296296296296]","[-0.30462962962962964, -0.40185185185185185]","[1, 1]","[0, 0]","[0, 0]","[9.445560699999987, 18.57758019999892]",['nextButton'],870106,001,2023-06-06_17h09.51.007,scripted_test,2022.2.5,59.99077341928556,
18,0,18,0,,,,,,images\real\6_004.jpg,images\synthetic\6_004.png,images\synthetic\6_004.png,Food,377.51280490000136,377.51280490000136,0.12527199999931327,377.51280490000136,377.51280490000136,[0.3648148148148148],[-0.03981481481481482],[1],[0],[0],[4.77211829999942],['images\\synthetic\\6_004.png'],images\synthetic\6_004.png,1,4.77211829999942,382.33879830000114,382.33879830000114,0.05183190000025206,3.0,"[0.002777777777777778, -0.010185185185185186]","[-0.2962962962962963, -0.4]","[1, 1]","[0, 0]","[0, 0]","[16.405255700001362, 17.771903300001213]",['nextButton'],870106,001,2023-06-06_17h09.51.007,scripted_test,2022.2.5,59.99077341928556,
19,0,19,0,,,,,,images\synthetic\2_007.jpg,images\real\2_007.jpg,images\synthetic\2_007.jpg,People,400.13019180000083,400.13019180000083,0.019118000000162283,400.13019180000083,400.13019180000083,"[-0.010185185185185186, -0.175]","[-0.4, -0.18518518518518517]","[1, 1]","[0, 0]","[0, 0]","[0.0002917000001616543, 6.827669800000876]",['images\\synthetic\\2_007.jpg'],images\synthetic\2_007.jpg,1,0.0002917000001616543,406.9691485000003,406.9691485000003,0.006453600000895676,3.0,"[-0.025925925925925925, -0.019444444444444445]","[-0.3111111111111111, -0.4101851851851852]","[1, 1]","[0, 0]","[0, 0]","[0.8048586999993859, 1.3537692999998399]",['nextButton'],870106,001,2023-06-06_17h09.51.007,scripted_test,2022.2.5,59.99077341928556,
20,0,20,0,,,,,,images\synthetic\7_009.png,images\real\7_009.jpg,images\synthetic\7_009.png,Objects,408.39443140000003,408.39443140000003,0.0658132000007754,408.39443140000003,408.39443140000003,"[-0.019444444444444445, 0.4722222222222222]","[-0.4101851851851852, -0.11851851851851852]","[1, 1]","[0, 0]","[0, 0]","[0.00040499999886378646, 6.282274999999572]",['images\\real\\7_009.jpg'],images\real\7_009.jpg,0,0.00040499999886378646,414.7031369000015,414.7031369000015,0.02308430000084627,4.0,"[0.2490740740740741, -0.020370370370370372]","[-0.29814814814814816, -0.39444444444444443]","[1, 1]","[0, 0]","[0, 0]","[1.6201413000017055, 2.4370558000009623]",['nextButton'],870106,001,2023-06-06_17h09.51.007,scripted_test,2022.2.5,59.99077341928556,
21,0,21,0,,,,,,images\synthetic\2_014.png,images\real\2_014.jpg,images\synthetic\2_014.png,People,417.25555180000083,417.25555180000083,0.1068118000002869,417.25555180000083,417.25555180000083,[-0.2611111111111111],[-0.09351851851851851],[1],[0],[0],[8.242176700001437],['images\\synthetic\\2_014.png'],images\synthetic\2_014.png,1,8.242176700001437,425.5189646000017,425.5189646000017,0.02381269999932556,5.0,"[0.49722222222222223, 0.003703703703703704]","[-0.29814814814814816, -0.4]","[1, 1]","[0, 0]","[0, 0]","[15.382966199998918, 16.283046699998522]",['nextButton'],870106,001,2023-06-06_17h09.51.007,scripted_test,2022.2.5,59.99077341928556,
22,0,22,0,,,,,,images\synthetic\5_004.jpg,images\real\5_004.jpeg,images\synthetic\5_004.jpg,Houses (Interior),441.8481905000008,441.8481905000008,0.03773739999996906,441.8481905000008,441.8481905000008,"[0.003703703703703704, 0.23796296296296296]","[-0.4, -0.15092592592592594]","[1, 1]","[0, 0]","[0, 0]","[0.00037309999970602803, 1.9940540000006877]",['images\\real\\5_004.jpeg'],images\real\5_004.jpeg,0,0.00037309999970602803,443.8627789000002,443.8627789000002,0.019959300001573865,4.0,"[0.25277777777777777, 0.009259259259259259]","[-0.2972222222222222, -0.4046296296296296]","[1, 1]","[0, 0]","[0, 0]","[11.478970500000287, 12.172446600001422]",['nextButton'],870106,001,2023-06-06_17h09.51.007,scripted_test,2022.2.5,59.99077341928556,
23,0,23,0,,,,,,images\synthetic\1_002.png,images\real\1_002.jpg,images\synthetic\1_002.png,Animals,456.07043560000056,456.07043560000056,0.03211050000027171,456.07043560000056,456.07043560000056,"[0.009259259259259259, -0.3907407407407407]","[-0.4046296296296296, -0.07222222222222222]","[1, 1]","[0, 0]","[0, 0]","[0.00031099999978323467, 4.331739999999627]",['images\\synthetic\\1_002.png'],images\synthetic\1_002.png,1,0.00031099999978323467,460.4272193000015,460.4272193000015,0.0216640999988158,2.0,"[-0.22777777777777777, 0.044444444444444446]","[-0.2972222222222222, -0.39351851851851855]","[1, 1]","[0, 0]","[0, 0]","[3.139795099999901, 5.125450600000477]",['nextButton'],870106,001,2023-06-06_17h09.51.007,scripted_test,2022.2.5,59.99077341928556,
24,0,24,0,,,,,,images\synthetic\7_006.png,images\real\7_006.jpg,images\synthetic\7_006.png,Objects,465.6764052000017,465.6764052000017,0.11669090000032156,465.6764052000017,465.6764052000017,[-0.35833333333333334],[-0.05925925925925926],[1],[0],[0],[7.894023999999263],['images\\synthetic\\7_006.png'],images\synthetic\7_006.png,1,7.894023999999263,473.6116886,473.6116886,0.040686999998797546,5.0,"[0.5175925925925926, 0.013888888888888888]","[-0.32222222222222224, -0.3962962962962963]","[1, 1]","[0, 0]","[0, 0]","[6.071244200000365, 6.95253860000048]",['nextButton'],870106,001,2023-06-06_17h09.51.007,scripted_test,2022.2.5,59.99077341928556,
25,0,25,0,,,,,,images\real\1_007.jpg,images\synthetic\1_007.png,images\synthetic\1_007.png,Animals,480.62331630000153,480.62331630000153,0.050744999998642015,480.62331630000153,480.62331630000153,"[0.013888888888888888, 0.19814814814814816]","[-0.3962962962962963, -0.1037037037037037]","[1, 1]","[0, 0]","[0, 0]","[0.0003531000002112705, 4.280241999998907]",['images\\synthetic\\1_007.png'],images\synthetic\1_007.png,1,0.0003531000002112705,484.9426329000016,484.9426329000016,0.03781700000035926,4.0,"[0.2574074074074074, -0.017592592592592594]","[-0.27685185185185185, -0.38981481481481484]","[1, 1]","[0, 0]","[0, 0]","[3.273504100001446, 4.757261200000357]",['nextButton'],870106,001,2023-06-06_17h09.51.007,scripted_test,2022.2.5,59.99077341928556,
26,0,26,0,,,,,,images\synthetic\5_012.png,images\real\5_012.jpg,images\synthetic\5_012.png,Houses (Interior),489.7444742000007,489.7444742000007,0.03992070000094827,489.7444742000007,489.7444742000007,"[-0.017592592592592594, -0.2518518518518518]","[-0.38981481481481484, -0.11851851851851852]","[1, 1]","[0, 0]","[0, 0]","[0.0002713999983825488, 4.105450299999575]",['images\\synthetic\\5_012.png'],images\synthetic\5_012.png,1,0.0002713999983825488,493.87554270000146,493.87554270000146,0.024536599999919417,5.0,"[0.4981481481481482, -0.03611111111111111]","[-0.29074074074074074, -0.39537037037037037]","[1, 1]","[0, 0]","[0, 0]","[1.9533740999995644, 4.103229099999226]",['nextButton'],870106,001,2023-06-06_17h09.51.007,scripted_test,2022.2.5,59.99077341928556,
27,0,27,0,,,,,,images\real\8_010.jpeg,images\synthetic\8_010.png,images\synthetic\8_010.png,Landscapes,498.10875170000145,498.10875170000145,0.12180720000105794,498.10875170000145,498.10875170000145,[-0.36018518518518516],[-0.14166666666666666],[1],[0],[0],[6.610917000001791],['images\\real\\8_010.jpeg'],images\real\8_010.jpeg,0,6.610917000001791,504.7869761000002,504.7869761000002,0.06540899999890826,3.0,"[-0.005555555555555556, 0.001851851851851852]","[-0.2916666666666667, -0.42777777777777776]","[1, 1]","[0, 0]","[0, 0]","[2.895021899999847, 4.543579499999396]",['nextButton'],870106,001,2023-06-06_17h09.51.007,scripted_test,2022.2.5,59.99077341928556,
28,0,28,0,,,,,,images\synthetic\7_002.png,images\real\7_002.jpg,images\synthetic\7_002.png,Objects,509.3829708000012,509.3829708000012,0.04630249999900116,509.3829708000012,509.3829708000012,"[0.001851851851851852, -0.2759259259259259]","[-0.42777777777777776, -0.15648148148148147]","[1, 1]","[0, 0]","[0, 0]","[0.00027690000024449546, 5.5670352000015555]",['images\\synthetic\\7_002.png'],images\synthetic\7_002.png,1,0.00027690000024449546,514.9779018000008,514.9779018000008,0.026414699999804725,4.0,"[0.24814814814814815, 0.030555555555555555]","[-0.2814814814814815, -0.3888888888888889]","[1, 1]","[0, 0]","[0, 0]","[3.2998827999999776, 4.182743600000322]",['nextButton'],870106,001,2023-06-06_17h09.51.007,scripted_test,2022.2.5,59.99077341928556,
29,0,29,0,,,,,,images\real\7_008.jpg,images\synthetic\7_008.png,images\synthetic\7_008.png,Objects,519.2580806000005,519.2580806000005,0.08856940000077884,519.2580806000005,519.2580806000005,"[0.030555555555555555, 0.4666666666666667]","[-0.3888888888888889, -0.1175925925925926]","[1, 1]","[0, 0]","[0, 0]","[0.00028329999986453913, 6.357005699999718]",['images\\synthetic\\7_008.png'],images\synthetic\7_008.png,1,0.00028329999986453913,525.6595511000014,525.6595511000014,0.0469427000007272,4.0,"[0.27685185185185185, -0.032407407407407406]","[-0.29074074074074074, -0.4027777777777778]","[1, 1]","[0, 0]","[0, 0]","[3.531000500001028, 7.018886500000008]",['nextButton'],870106,001,2023-06-06_17h09.51.007,scripted_test,2022.2.5,59.99077341928556,
30,0,30,0,,,,,,images\synthetic\2_002.png,images\real\2_002.jpg,images\synthetic\2_002.png,People,532.7345899000011,532.7345899000011,0.0465795000000071,532.7345899000011,532.7345899000011,"[-0.032407407407407406, -0.3351851851851852]","[-0.4027777777777778, -0.06666666666666667]","[1, 1]","[0, 0]","[0, 0]","[0.0003254999992350349, 10.416225699998904]",['images\\synthetic\\2_002.png'],images\synthetic\2_002.png,1,0.0003254999992350349,543.1935723000006,543.1935723000006,0.042363599999589496,3.0,"[0.24351851851851852, 0.013888888888888888, 0.002777777777777778]","[-0.30462962962962964, -0.3037037037037037, -0.387037037037037]","[1, 1, 1]","[0, 0, 0]","[0, 0, 0]","[8.62931749999916, 11.061723700000584, 19.817134499999156]",['nextButton'],870106,001,2023-06-06_17h09.51.007,scripted_test,2022.2.5,59.99077341928556,
31,0,31,0,,,,,,images\real\5_005.jpeg,images\synthetic\5_005.jpg,images\synthetic\5_005.jpg,Houses (Interior),563.1143429000003,563.1143429000003,0.09787359999972978,563.1143429000003,563.1143429000003,[-0.49074074074074076],[-0.025925925925925925],[1],[0],[0],[2.8772179999996297],['images\\real\\5_005.jpeg'],images\real\5_005.jpeg,0,2.8772179999996297,566.0332908,566.0332908,0.040360400000281516,5.0,"[0.49537037037037035, -0.03611111111111111]","[-0.31203703703703706, -0.40370370370370373]","[1, 1]","[0, 0]","[0, 0]","[7.4873776000004, 11.185842999999295]",['nextButton'],870106,001,2023-06-06_17h09.51.007,scripted_test,2022.2.5,59.99077341928556,
32,0,32,0,,,,,,images\real\5_003.jpeg,images\synthetic\5_003.jpg,images\synthetic\5_003.jpg,Houses (Interior),577.2727098000014,577.2727098000014,0.04878110000026936,577.2727098000014,577.2727098000014,[-0.43148148148148147],[-0.15],[1],[0],[0],[6.852434000000358],['images\\real\\5_003.jpeg'],images\real\5_003.jpeg,0,6.852434000000358,584.1552918000016,584.1552918000016,0.025797700000111945,5.0,"[0.48518518518518516, -0.005555555555555556]","[-0.30462962962962964, -0.38055555555555554]","[1, 1]","[0, 0]","[0, 0]","[5.230271899999934, 6.363897299999735]",['nextButton'],870106,001,2023-06-06_17h09.51.007,scripted_test,2022.2.5,59.99077341928556,
33,0,33,0,,,,,,images\real\4_006.jpg,images\synthetic\4_006.jpg,images\synthetic\4_006.jpg,Houses (Exterior),590.5672334999999,590.5672334999999,0.045588799999677576,590.5672334999999,590.5672334999999,"[-0.005555555555555556, -0.3648148148148148]","[-0.38055555555555554, -0.07407407407407407]","[1, 1]","[0, 0]","[0, 0]","[0.00027380000028642826, 6.823392900001636]",['images\\real\\4_006.jpg'],images\real\4_006.jpg,0,0.00027380000028642826,597.4261833,597.4261833,0.03251239999917743,3.0,"[-0.006481481481481481, 0.007407407407407408]","[-0.287962962962963, -0.3925925925925926]","[1, 1]","[0, 0]","[0, 0]","[32.53901489999953, 34.486269600000014]",['nextButton'],870106,001,2023-06-06_17h09.51.007,scripted_test,2022.2.5,59.99077341928556,
34,0,34,0,,,,,,images\real\4_001.jpeg,images\synthetic\4_001.png,images\synthetic\4_001.png,Houses (Exterior),632.0156618000001,632.0156618000001,0.08985179999945103,632.0156618000001,632.0156618000001,[0.42314814814814816],[-0.025925925925925925],[1],[0],[0],[6.587918100000024],['images\\synthetic\\4_001.png'],images\synthetic\4_001.png,1,6.587918100000024,638.6155333000006,638.6155333000006,0.010133000001587789,4.0,"[0.2657407407407407, 0.012962962962962963]","[-0.29259259259259257, -0.38796296296296295]","[1, 1]","[0, 0]","[0, 0]","[13.647689499999615, 14.578999200000908]",['nextButton'],870106,001,2023-06-06_17h09.51.007,scripted_test,2022.2.5,59.99077341928556,
35,0,35,0,,,,,,images\real\4_003.jpg,images\synthetic\4_003.png,images\synthetic\4_003.png,Houses (Exterior),653.3601451000013,653.3601451000013,0.16040499999871827,653.3601451000013,653.3601451000013,[0.2935185185185185],[-0.09537037037037037],[1],[0],[0],[12.33588889999919],['images\\synthetic\\4_003.png'],images\synthetic\4_003.png,1,12.33588889999919,665.7401825000015,665.7401825000015,0.044100700000853976,4.0,"[0.2675925925925926, -0.001851851851851852]","[-0.29907407407407405, -0.3888888888888889]","[1, 1]","[0, 0]","[0, 0]","[3.1663399999997637, 3.7325093999988894]",['nextButton'],870106,001,2023-06-06_17h09.51.007,scripted_test,2022.2.5,59.99077341928556,
36,0,36,0,,,,,,images\real\4_011.png,images\synthetic\4_011.png,images\synthetic\4_011.png,Houses (Exterior),669.5844061000007,669.5844061000007,0.10215339999922435,669.5844061000007,669.5844061000007,[-0.43425925925925923],[-0.05740740740740741],[1],[0],[0],[22.927886299999955],['images\\real\\4_011.png'],images\real\4_011.png,0,22.927886299999955,692.5428268000014,692.5428268000014,0.031589899999744375,5.0,"[0.5138888888888888, 0.018518518518518517]","[-0.3, -0.3861111111111111]","[1, 1]","[0, 0]","[0, 0]","[2.5277683999993315, 3.2595323999994434]",['nextButton'],870106,001,2023-06-06_17h09.51.007,scripted_test,2022.2.5,59.99077341928556,
37,0,37,0,,,,,,images\real\3_009.png,images\synthetic\3_009.jpg,images\synthetic\3_009.jpg,Cars,695.952835600001,695.952835600001,0.14286490000085905,695.952835600001,695.952835600001,[0.30833333333333335],[-0.11944444444444445],[1],[0],[0],[3.8603196000003663],['images\\synthetic\\3_009.jpg'],images\synthetic\3_009.jpg,1,3.8603196000003663,699.8288104000003,699.8288104000003,0.01616929999909189,3.0,"[0.007407407407407408, -0.021296296296296296]","[-0.2972222222222222, -0.4009259259259259]","[1, 1]","[0, 0]","[0, 0]","[0.8059721999998146, 1.639204699999027]",['nextButton'],870106,001,2023-06-06_17h09.51.007,scripted_test,2022.2.5,59.99077341928556,
38,0,38,0,,,,,,images\synthetic\10_004.png,images\real\10_004.jpeg,images\synthetic\10_004.png,Groups of people,701.5202737,701.5202737,0.043077700000139885,701.5202737,701.5202737,"[-0.021296296296296296, -0.2759259259259259]","[-0.4009259259259259, -0.1]","[1, 1]","[0, 0]","[0, 0]","[0.0003147000006720191, 10.82578900000044]",['images\\synthetic\\10_004.png'],images\synthetic\10_004.png,1,0.0003147000006720191,712.3688342000005,712.3688342000005,0.025398499999937485,4.0,"[-0.003703703703703704, 0.000925925925925926, 0.22407407407407406, 0.05555555555555555]","[-0.2722222222222222, -0.2796296296296296, -0.30185185185185187, -0.3787037037037037]","[1, 1, 1, 1]","[0, 0, 0, 0]","[0, 0, 0, 0]","[5.798508500000025, 6.380660699998771, 7.029923599999165, 7.562890499999412]",['nextButton'],870106,001,2023-06-06_17h09.51.007,scripted_test,2022.2.5,59.99077341928556,
39,0,39,0,,,,,,images\real\1_004.jpg,images\synthetic\1_004.png,images\synthetic\1_004.png,Animals,719.9937505000016,719.9937505000016,0.0556218000001536,719.9937505000016,719.9937505000016,"[0.05555555555555555, 0.5685185185185185]","[-0.3787037037037037, -0.022222222222222223]","[1, 1]","[0, 0]","[0, 0]","[0.00032559999999648426, 4.7275174999995215]",['images\\synthetic\\1_004.png'],images\synthetic\1_004.png,1,0.00032559999999648426,724.7451684000007,724.7451684000007,0.02196179999918968,3.0,"[0.0, -0.001851851851851852]","[-0.2962962962962963, -0.4212962962962963]","[1, 1]","[0, 0]","[0, 0]","[1.8862955999993574, 3.2368373999997857]",['nextButton'],870106,001,2023-06-06_17h09.51.007,scripted_test,2022.2.5,59.99077341928556,
40,0,40,0,,,,,,images\real\9_005.jpg,images\synthetic\9_005.png,images\synthetic\9_005.png,Sports,728.0926321000006,728.0926321000006,0.10291659999893454,728.0926321000006,728.0926321000006,[0.44814814814814813],[-0.11944444444444445],[1],[0],[0],[3.700967999999193],['images\\synthetic\\9_005.png'],images\synthetic\9_005.png,1,3.700967999999193,731.8103853000011,731.8103853000011,0.019018299999515875,4.0,"[0.2712962962962963, -0.005555555555555556]","[-0.2814814814814815, -0.4287037037037037]","[1, 1]","[0, 0]","[0, 0]","[16.468354399999953, 19.483956699999908]",['nextButton'],870106,001,2023-06-06_17h09.51.007,scripted_test,2022.2.5,59.99077341928556,
41,0,41,0,,,,,,images\real\4_010.png,images\synthetic\4_010.png,images\synthetic\4_010.png,Houses (Exterior),751.4376221000002,751.4376221000002,0.13332330000048387,751.4376221000002,751.4376221000002,"[0.006481481481481481, -0.32314814814814813]","[-0.40185185185185185, -0.06018518518518518]","[1, 1]","[0, 0]","[0, 0]","[0.1820062999995571, 2.564946200000122]",['images\\real\\4_010.png'],images\real\4_010.png,0,0.1820062999995571,754.0658712000004,754.0658712000004,0.06378469999981462,4.0,"[0.25462962962962965, -0.019444444444444445]","[-0.27870370370370373, -0.38796296296296295]","[1, 1]","[0, 0]","[0, 0]","[2.264426800000365, 3.029891199999838]",['nextButton'],870106,001,2023-06-06_17h09.51.007,scripted_test,2022.2.5,59.99077341928556,
42,0,42,0,,,,,,images\synthetic\4_012.png,images\real\4_012.jpeg,images\synthetic\4_012.png,Houses (Exterior),757.2294856000008,757.2294856000008,0.12148530000013125,757.2294856000008,757.2294856000008,[0.4203703703703704],[-0.010185185185185186],[1],[0],[0],[18.007384900000034],['images\\real\\4_012.jpeg'],images\real\4_012.jpeg,0,18.007384900000034,775.3123671000012,775.3123671000012,0.07643439999992552,4.0,"[0.23333333333333334, -0.003703703703703704]","[-0.2851851851851852, -0.38055555555555554]","[1, 1]","[0, 0]","[0, 0]","[2.4003165000012814, 4.433285099999921]",['nextButton'],870106,001,2023-06-06_17h09.51.007,scripted_test,2022.2.5,59.99077341928556,
43,0,43,0,,,,,,images\real\10_005.jpg,images\synthetic\10_005.png,images\synthetic\10_005.png,Groups of people,779.8192471000002,779.8192471000002,0.06784020000122837,779.8192471000002,779.8192471000002,"[-0.003703703703703704, 0.35462962962962963]","[-0.38055555555555554, -0.010185185185185186]","[1, 1]","[0, 0]","[0, 0]","[0.0002932999996119179, 9.730799499999193]",['images\\synthetic\\10_005.png'],images\synthetic\10_005.png,1,0.0002932999996119179,789.5945605000015,789.5945605000015,0.044265700000323704,5.0,"[0.4888888888888889, 0.026851851851851852]","[-0.29444444444444445, -0.3824074074074074]","[1, 1]","[0, 0]","[0, 0]","[0.9479943000005733, 1.5998939000000973]",['nextButton'],870106,001,2023-06-06_17h09.51.007,scripted_test,2022.2.5,59.99077341928556,
44,0,44,0,,,,,,images\synthetic\7_005.png,images\real\7_005.jpg,images\synthetic\7_005.png,Objects,791.2483213000014,791.2483213000014,0.04967229999965639,791.2483213000014,791.2483213000014,"[0.026851851851851852, 0.39814814814814814]","[-0.3824074074074074, -0.03888888888888889]","[1, 1]","[0, 0]","[0, 0]","[0.0004121000001759967, 3.380448300000353]",['images\\real\\7_005.jpg'],images\real\7_005.jpg,0,0.0004121000001759967,794.6455238000017,794.6455238000017,0.017331900000499445,3.0,"[0.004629629629629629, -0.019444444444444445]","[-0.29074074074074074, -0.4]","[1, 1]","[0, 0]","[0, 0]","[2.0974253000003955, 2.5772696000003634]",['nextButton'],870106,001,2023-06-06_17h09.51.007,scripted_test,2022.2.5,59.99077341928556,
45,0,45,0,,,,,,images\real\1_006.jpg,images\synthetic\1_006.png,images\synthetic\1_006.png,Animals,797.2752925000004,797.2752925000004,0.04675640000095882,797.2752925000004,797.2752925000004,"[-0.019444444444444445, 0.4361111111111111]","[-0.4, -0.11388888888888889]","[1, 1]","[0, 0]","[0, 0]","[0.00033040000016626436, 3.0339941000002]",['images\\synthetic\\1_006.png'],images\synthetic\1_006.png,1,0.00033040000016626436,800.3511801000004,800.3511801000004,0.036915099999532686,3.0,"[0.005555555555555556, 0.000925925925925926]","[-0.2796296296296296, -0.3861111111111111]","[1, 1]","[0, 0]","[0, 0]","[1.2547978999991756, 2.026051099999677]",['nextButton'],870106,001,2023-06-06_17h09.51.007,scripted_test,2022.2.5,59.99077341928556,
46,0,46,0,,,,,,images\synthetic\2_016.png,images\real\2_016.jpg,images\synthetic\2_016.png,People,802.5141207000015,802.5141207000015,0.12916870000117342,802.5141207000015,802.5141207000015,[-0.3685185185185185],[-0.044444444444444446],[1],[0],[0],[7.796470100000079],['images\\synthetic\\2_016.png'],images\synthetic\2_016.png,1,7.796470100000079,810.3479211000013,810.3479211000013,0.03823530000045139,4.0,"[0.27685185185185185, -0.041666666666666664]","[-0.275, -0.40925925925925927]","[1, 1]","[0, 0]","[0, 0]","[2.2913704000002326, 2.90934229999948]",['nextButton'],870106,001,2023-06-06_17h09.51.007,scripted_test,2022.2.5,59.99077341928556,
47,0,47,0,,,,,,images\real\5_007.jpeg,images\synthetic\5_007.jpg,images\synthetic\5_007.jpg,Houses (Interior),813.3137374000016,813.3137374000016,0.04708719999871391,813.3137374000016,813.3137374000016,"[-0.041666666666666664, 0.17407407407407408]","[-0.40925925925925927, -0.14629629629629629]","[1, 1]","[0, 0]","[0, 0]","[0.0003467999995336868, 2.1646140000011656]",['images\\synthetic\\5_007.jpg'],images\synthetic\5_007.jpg,1,0.0003467999995336868,815.4932897000017,815.4932897000017,0.017900099999678787,4.0,"[0.2324074074074074, 0.03611111111111111]","[-0.29074074074074074, -0.37962962962962965]","[1, 1]","[0, 0]","[0, 0]","[2.892199800000526, 3.525447500000155]",['nextButton'],870106,001,2023-06-06_17h09.51.007,scripted_test,2022.2.5,59.99077341928556,
48,0,48,0,,,,,,images\synthetic\7_003.png,images\real\7_003.jpg,images\synthetic\7_003.png,Objects,819.1534515000003,819.1534515000003,0.12282760000016424,819.1534515000003,819.1534515000003,[-0.37777777777777777],[0.04259259259259259],[1],[0],[0],[6.337111199998617],['images\\synthetic\\7_003.png'],images\synthetic\7_003.png,1,6.337111199998617,825.5340658000005,825.5340658000005,0.044492799999716226,5.0,"[0.49444444444444446, 0.053703703703703705]","[-0.29907407407407405, -0.4]","[1, 1]","[0, 0]","[0, 0]","[5.283463699999629, 7.082587400000193]",['nextButton'],870106,001,2023-06-06_17h09.51.007,scripted_test,2022.2.5,59.99077341928556,
49,0,49,0,,,,,,images\real\3_007.jpeg,images\synthetic\3_007.jpg,images\synthetic\3_007.jpg,Cars,832.686291,832.686291,0.06004360000042652,832.686291,832.686291,[0.31203703703703706],[0.05740740740740741],[1],[0],[0],[3.990001400001347],['images\\synthetic\\3_007.jpg'],images\synthetic\3_007.jpg,1,3.990001400001347,836.6936315000003,836.6936315000003,0.019300600000860868,2.0,"[-0.24444444444444444, -0.06388888888888888]","[-0.3194444444444444, -0.38333333333333336]","[1, 1]","[0, 0]","[0, 0]","[13.237838900000497, 15.571411999999327]",['nextButton'],870106,001,2023-06-06_17h09.51.007,scripted_test,2022.2.5,59.99077341928556,
50,0,50,0,,,,,,images\synthetic\5_002.png,images\real\5_002.jpg,images\synthetic\5_002.png,Houses (Interior),852.3846100999999,852.3846100999999,0.11063599999943108,852.3846100999999,852.3846100999999,[0.4546296296296296],[-0.037037037037037035],[1],[0],[0],[13.369254799999908],['images\\real\\5_002.jpg'],images\real\5_002.jpg,0,13.369254799999908,865.8358152000001,865.8358152000001,0.08091520000016317,5.0,"[0.5046296296296297, 0.08148148148148149]","[-0.30648148148148147, -0.3814814814814815]","[1, 1]","[0, 0]","[0, 0]","[0.8623771999991732, 1.7966810999987501]",['nextButton'],870106,001,2023-06-06_17h09.51.007,scripted_test,2022.2.5,59.99077341928556,
51,0,51,0,,,,,,images\real\2_001.jpg,images\synthetic\2_001.png,images\synthetic\2_001.png,People,867.6809945000005,867.6809945000005,0.04201739999916754,867.6809945000005,867.6809945000005,"[0.08148148148148149, 0.2861111111111111]","[-0.3814814814814815, -0.07037037037037037]","[1, 1]","[0, 0]","[0, 0]","[0.0003780999995797174, 3.6057294999991427]",['images\\synthetic\\2_001.png'],images\synthetic\2_001.png,1,0.0003780999995797174,871.3161626000001,871.3161626000001,0.02861300000040501,3.0,"[0.003703703703703704, 0.01574074074074074]","[-0.29444444444444445, -0.412962962962963]","[1, 1]","[0, 0]","[0, 0]","[1.6973271999995632, 2.764843799999653]",['nextButton'],870106,001,2023-06-06_17h09.51.007,scripted_test,2022.2.5,59.99077341928556,
52,0,52,0,,,,,,images\synthetic\10_009.png,images\real\10_009.jpeg,images\synthetic\10_009.png,Groups of people,874.1714325000012,874.1714325000012,0.08484779999889724,874.1714325000012,874.1714325000012,[0.2537037037037037],[-0.06574074074074074],[1],[0],[0],[10.363130800000363],['images\\real\\10_009.jpeg'],images\real\10_009.jpeg,0,10.363130800000363,884.6088011000011,884.6088011000011,0.07013600000027509,5.0,"[0.5037037037037037, 0.0]","[-0.3111111111111111, -0.40555555555555556]","[1, 1]","[0, 0]","[0, 0]","[1.0061337999995885, 1.5593401000005542]",['nextButton'],870106,001,2023-06-06_17h09.51.007,scripted_test,2022.2.5,59.99077341928556,
53,0,53,0,,,,,,images\real\9_011.jpeg,images\synthetic\9_011.png,images\synthetic\9_011.png,Sports,886.3469875999999,886.3469875999999,0.1717386999989685,886.3469875999999,886.3469875999999,[0.44074074074074077],[0.012037037037037037],[1],[0],[0],[4.675246299999344],['images\\synthetic\\9_011.png'],images\synthetic\9_011.png,1,4.675246299999344,891.0648105,891.0648105,0.04502429999956803,1.0,"[0.011111111111111112, -0.25925925925925924, -0.47314814814814815, -0.020370370370370372]","[-0.3, -0.3101851851851852, -0.3074074074074074, -0.39351851851851855]","[1, 1, 1, 1]","[0, 0, 0, 0]","[0, 0, 0, 0]","[5.778366700000333, 7.29491550000057, 11.59502060000159, 15.11178960000143]",['nextButton'],870106,001,2023-06-06_17h09.51.007,scripted_test,2022.2.5,59.99077341928556,
54,0,54,0,,,,,,images\real\2_013.jpeg,images\synthetic\2_013.png,images\synthetic\2_013.png,People,906.3221457,906.3221457,0.13794299999972282,906.3221457,906.3221457,[0.37777777777777777],[0.05555555555555555],[1],[0],[0],[3.476123100001132],['images\\synthetic\\2_013.png'],images\synthetic\2_013.png,1,3.476123100001132,909.8292912000015,909.8292912000015,0.03383560000111174,2.0,"[-0.24722222222222223, 0.041666666666666664]","[-0.2972222222222222, -0.4148148148148148]","[1, 1]","[0, 0]","[0, 0]","[1.7937951000003522, 7.492263800000728]",['nextButton'],870106,001,2023-06-06_17h09.51.007,scripted_test,2022.2.5,59.99077341928556,
55,0,55,0,,,,,,images\real\9_007.jpeg,images\synthetic\9_007.png,images\synthetic\9_007.png,Sports,917.4340780000002,917.4340780000002,0.10271250000005239,917.4340780000002,917.4340780000002,[0.5268518518518519],[-0.07962962962962963],[1],[0],[0],[2.994471500000145],['images\\synthetic\\9_007.png'],images\synthetic\9_007.png,1,2.994471500000145,920.4632383000007,920.4632383000007,0.036082800001167925,3.0,"[0.021296296296296296, 0.03611111111111111]","[-0.29259259259259257, -0.40555555555555556]","[1, 1]","[0, 0]","[0, 0]","[14.006462100000135, 14.707230199999685]",['nextButton'],870106,001,2023-06-06_17h09.51.007,scripted_test,2022.2.5,59.99077341928556,
56,0,56,0,,,,,,images\real\2_008.jpg,images\synthetic\2_008.jpg,images\synthetic\2_008.jpg,People,935.2088941000002,935.2088941000002,0.031751999998959946,935.2088941000002,935.2088941000002,"[0.03611111111111111, 0.3435185185185185]","[-0.40555555555555556, 0.024074074074074074]","[1, 1]","[0, 0]","[0, 0]","[0.00033459999940532725, 5.600118700000166]",['images\\synthetic\\2_008.jpg'],images\synthetic\2_008.jpg,1,0.00033459999940532725,940.8159706000006,940.8159706000006,0.005544699999518343,4.0,"[0.2361111111111111, -0.032407407407407406]","[-0.2824074074074074, -0.3888888888888889]","[1, 1]","[0, 0]","[0, 0]","[9.136248499999056, 9.72061549999853]",['nextButton'],870106,001,2023-06-06_17h09.51.007,scripted_test,2022.2.5,59.99077341928556,
57,0,57,0,,,,,,images\synthetic\3_011.png,images\real\3_011.png,images\synthetic\3_011.png,Cars,950.6035604000008,950.6035604000008,0.06234220000078494,950.6035604000008,950.6035604000008,[-0.4083333333333333],[-0.12777777777777777],[1],[0],[0],[2.001613099999304],['images\\synthetic\\3_011.png'],images\synthetic\3_011.png,1,2.001613099999304,952.6376081000017,952.6376081000017,0.029853300000468153,4.0,"[0.24074074074074073, 0.07962962962962963]","[-0.29814814814814816, -0.41203703703703703]","[1, 1]","[0, 0]","[0, 0]","[14.595105600001261, 15.245812000001024]",['nextButton'],870106,001,2023-06-06_17h09.51.007,scripted_test,2022.2.5,59.99077341928556,
58,0,58,0,,,,,,images\synthetic\7_010.png,images\real\7_010.jpg,images\synthetic\7_010.png,Objects,967.9814414000011,967.9814414000011,0.0855686999984755,967.9814414000011,967.9814414000011,[0.2777777777777778],[-0.014814814814814815],[1],[0],[0],[6.71095140000034],['images\\real\\7_010.jpg'],images\real\7_010.jpg,0,6.71095140000034,974.7097154000003,974.7097154000003,0.01942819999931089,3.0,"[0.03888888888888889, 0.09444444444444444]","[-0.28703703703703703, -0.40370370370370373]","[1, 1]","[0, 0]","[0, 0]","[1.7912589999996271, 3.323447099999612]",['nextButton'],870106,001,2023-06-06_17h09.51.007,scripted_test,2022.2.5,59.99077341928556,
59,0,59,0,,,,,,images\synthetic\1_001.png,images\real\1_001.jpg,images\synthetic\1_001.png,Animals,978.0635299000005,978.0635299000005,0.02406139999948209,978.0635299000005,978.0635299000005,"[0.09722222222222222, -0.22037037037037038]","[-0.4046296296296296, -0.10277777777777777]","[1, 1]","[0, 0]","[0, 0]","[0.0004772000011143973, 2.79131580000103]",['images\\synthetic\\1_001.png'],images\synthetic\1_001.png,1,0.0004772000011143973,980.8811734999999,980.8811734999999,0.027109500000733533,2.0,"[-0.32314814814814813, 0.049074074074074076]","[-0.32314814814814813, -0.41388888888888886]","[1, 1]","[0, 0]","[0, 0]","[1.771720099999584, 4.732391799998368]",['nextButton'],870106,001,2023-06-06_17h09.51.007,scripted_test,2022.2.5,59.99077341928556,
60,0,60,0,,,,,,images\synthetic\9_003.png,images\real\9_003.jpg,images\synthetic\9_003.png,Sports,985.6878521000017,985.6878521000017,0.06909500000074331,985.6878521000017,985.6878521000017,[-0.24166666666666667],[-0.11388888888888889],[1],[0],[0],[3.245309300000372],['images\\synthetic\\9_003.png'],images\synthetic\9_003.png,1,3.245309300000372,988.9925108000007,988.9925108000007,0.0572809999994206,1.0,"[-0.48055555555555557, -0.017592592592592594]","[-0.31203703703703706, -0.4046296296296296]","[1, 1]","[0, 0]","[0, 0]","[4.85456879999947, 6.170453400000042]",['nextButton'],870106,001,2023-06-06_17h09.51.007,scripted_test,2022.2.5,59.99077341928556,
61,0,61,0,,,,,,images\synthetic\6_002.png,images\real\6_002.jpeg,images\synthetic\6_002.png,Food,995.212795200001,995.212795200001,0.04296570000042266,995.212795200001,995.212795200001,"[-0.017592592592592594, -0.33425925925925926]","[-0.4046296296296296, -0.10185185185185185]","[1, 1]","[0, 0]","[0, 0]","[0.0004231999992043711, 9.336314399999537]",['images\\synthetic\\6_002.png'],images\synthetic\6_002.png,1,0.0004231999992043711,1004.5625251000001,1004.5625251000001,0.011361200000465033,4.0,"[0.2324074074074074, 0.058333333333333334]","[-0.28703703703703703, -0.4009259259259259]","[1, 1]","[0, 0]","[0, 0]","[7.347554300000411, 7.997172900000805]",['nextButton'],870106,001,2023-06-06_17h09.51.007,scripted_test,2022.2.5,59.99077341928556,
62,0,62,0,,,,,,images\real\6_010.jpeg,images\synthetic\6_010.png,images\synthetic\6_010.png,Food,1012.6110405,1012.6110405,0.045267400000739144,1012.6110405,1012.6110405,"[0.058333333333333334, 0.4185185185185185]","[-0.4009259259259259, -0.1175925925925926]","[1, 1]","[0, 0]","[0, 0]","[0.00029229999927338213, 3.0694745000000694]",['images\\synthetic\\6_010.png'],images\synthetic\6_010.png,1,0.00029229999927338213,1015.725043800001,1015.725043800001,0.042419600000357605,4.0,"[0.2388888888888889, 0.016666666666666666]","[-0.2833333333333333, -0.3814814814814815]","[1, 1]","[0, 0]","[0, 0]","[6.034614100000908, 6.717834200000652]",['nextButton'],870106,001,2023-06-06_17h09.51.007,scripted_test,2022.2.5,59.99077341928556,
63,0,63,0,,,,,,images\synthetic\4_007.jpg,images\real\4_007.jpg,images\synthetic\4_007.jpg,Houses (Exterior),1022.5226970000003,1022.5226970000003,0.07274259999940114,1022.5226970000003,1022.5226970000003,"[0.016666666666666666, 0.3314814814814815]","[-0.3814814814814815, -0.10555555555555556]","[1, 1]","[0, 0]","[0, 0]","[0.0003417999996599974, 13.590525200001139]",['images\\real\\4_007.jpg'],images\real\4_007.jpg,0,0.0003417999996599974,1036.171478100001,1036.171478100001,0.05669279999892751,5.0,"[0.48055555555555557, -0.025]","[-0.29907407407407405, -0.3972222222222222]","[1, 1]","[0, 0]","[0, 0]","[1.1874678000003769, 2.270628199999919]",['nextButton'],870106,001,2023-06-06_17h09.51.007,scripted_test,2022.2.5,59.99077341928556,
64,0,64,0,,,,,,images\real\3_005.jpeg,images\synthetic\3_005.jpg,images\synthetic\3_005.jpg,Cars,1038.4893281000004,1038.4893281000004,0.04116760000033537,1038.4893281000004,1038.4893281000004,"[-0.025, 0.47962962962962963]","[-0.3972222222222222, -0.07685185185185185]","[1, 1]","[0, 0]","[0, 0]","[0.00031119999948714394, 5.937863900000593]",['images\\synthetic\\3_005.jpg'],images\synthetic\3_005.jpg,1,0.00031119999948714394,1044.4374825000014,1044.4374825000014,0.010186399998929119,4.0,"[0.24259259259259258, -0.024074074074074074]","[-0.3138888888888889, -0.39537037037037037]","[1, 1]","[0, 0]","[0, 0]","[0.935746699999072, 1.8353984000004857]",['nextButton'],870106,001,2023-06-06_17h09.51.007,scripted_test,2022.2.5,59.99077341928556,
65,0,65,0,,,,,,images\real\2_009.jpg,images\synthetic\2_009.png,images\synthetic\2_009.png,People,1046.3189472000013,1046.3189472000013,0.04193909999958123,1046.3189472000013,1046.3189472000013,"[-0.024074074074074074, 0.3416666666666667]","[-0.39537037037037037, -0.07777777777777778]","[1, 1]","[0, 0]","[0, 0]","[0.00033040000016626436, 1.9048476999996637]",['images\\synthetic\\2_009.png'],images\synthetic\2_009.png,1,0.00033040000016626436,1048.2392579000007,1048.2392579000007,0.013768600001640152,2.0,"[-0.2537037037037037, 0.019444444444444445]","[-0.2916666666666667, -0.4111111111111111]","[1, 1]","[0, 0]","[0, 0]","[1.0317380999986199, 3.3986445999998978]",['nextButton'],870106,001,2023-06-06_17h09.51.007,scripted_test,2022.2.5,59.99077341928556,
66,0,66,0,,,,,,images\real\8_008.jpeg,images\synthetic\8_008.png,images\synthetic\8_008.png,Landscapes,1051.7650072000015,1051.7650072000015,0.11717249999855994,1051.7650072000015,1051.7650072000015,[0.35648148148148145],[-0.026851851851851852],[1],[0],[0],[6.762045099998431],['images\\synthetic\\8_008.png'],images\synthetic\8_008.png,1,6.762045099998431,1058.5681103000006,1058.5681103000006,0.040029299998423085,3.0,"[-0.025, -0.04814814814814815]","[-0.2833333333333333, -0.387037037037037]","[1, 1]","[0, 0]","[0, 0]","[8.419130700000096, 8.968415499999537]",['nextButton'],870106,001,2023-06-06_17h09.51.007,scripted_test,2022.2.5,59.99077341928556,
67,0,67,0,,,,,,images\real\6_006.jpeg,images\synthetic\6_006.png,images\synthetic\6_006.png,Food,1067.6447605000012,1067.6447605000012,0.10063070000069274,1067.6447605000012,1067.6447605000012,[0.4842592592592593],[-0.008333333333333333],[1],[0],[0],[2.4309365000008256],['images\\synthetic\\6_006.png'],images\synthetic\6_006.png,1,2.4309365000008256,1070.1120966000017,1070.1120966000017,0.03770970000005036,4.0,"[0.21296296296296297, 0.016666666666666666]","[-0.3212962962962963, -0.37222222222222223]","[1, 1]","[0, 0]","[0, 0]","[3.4891372000001866, 4.106558699999368]",['nextButton'],870106,001,2023-06-06_17h09.51.007,scripted_test,2022.2.5,59.99077341928556,
68,0,68,0,,,,,,images\real\8_002.jpeg,images\synthetic\8_002.png,images\synthetic\8_002.png,Landscapes,1074.339160900001,1074.339160900001,0.11132079999879352,1074.339160900001,1074.339160900001,[0.28425925925925927],[0.012037037037037037],[1],[0],[0],[15.417209199998979],['images\\synthetic\\8_002.png'],images\synthetic\8_002.png,1,15.417209199998979,1089.8016092000016,1089.8016092000016,0.0453259000005346,5.0,"[0.4981481481481482, 0.000925925925925926]","[-0.31666666666666665, -0.387037037037037]","[1, 1]","[0, 0]","[0, 0]","[1.6973293000010017, 6.463865600000645]",['nextButton'],870106,001,2023-06-06_17h09.51.007,scripted_test,2022.2.5,59.99077341928556,
69,0,69,0,,,,,,images\synthetic\2_015.png,images\real\2_015.jpg,images\synthetic\2_015.png,People,1096.3525714000007,1096.3525714000007,0.07745410000097763,1096.3525714000007,1096.3525714000007,"[0.000925925925925926, -0.2916666666666667]","[-0.387037037037037, -0.07962962962962963]","[1, 1]","[0, 0]","[0, 0]","[0.0003620000006776536, 1.756036300001142]",['images\\synthetic\\2_015.png'],images\synthetic\2_015.png,1,0.0003620000006776536,1098.1559295000006,1098.1559295000006,0.050323700001172256,2.0,"[-0.25555555555555554, 0.05185185185185185]","[-0.2898148148148148, -0.38055555555555554]","[1, 1]","[0, 0]","[0, 0]","[1.1953795999997965, 3.6586392000008345]",['nextButton'],870106,001,2023-06-06_17h09.51.007,scripted_test,2022.2.5,59.99077341928556,
70,0,70,0,,,,,,images\synthetic\3_002.jpg,images\real\3_002.png,images\synthetic\3_002.jpg,Cars,1101.898300500001,1101.898300500001,0.07552129999930912,1101.898300500001,1101.898300500001,"[0.05185185185185185, -0.2462962962962963]","[-0.38055555555555554, -0.0712962962962963]","[1, 1]","[0, 0]","[0, 0]","[0.0003011999997397652, 4.192074299999149]",['images\\synthetic\\3_002.jpg'],images\synthetic\3_002.jpg,1,0.0003011999997397652,1106.0948986000003,1106.0948986000003,0.004875900000115507,4.0,"[0.33055555555555555, 0.040740740740740744]","[-0.3101851851851852, -0.3962962962962963]","[1, 1]","[0, 0]","[0, 0]","[4.018356399999902, 4.868291299999328]",['nextButton'],870106,001,2023-06-06_17h09.51.007,scripted_test,2022.2.5,59.99077341928556,
71,0,71,0,,,,,,images\real\3_003.jpeg,images\synthetic\3_003.jpg,images\synthetic\3_003.jpg,Cars,1111.0019574000016,1111.0019574000016,0.031092299999727402,1111.0019574000016,1111.0019574000016,"[0.040740740740740744, 0.3287037037037037]","[-0.3962962962962963, -0.16574074074074074]","[1, 1]","[0, 0]","[0, 0]","[0.0002662999995663995, 2.6853673000005074]",['images\\synthetic\\3_003.jpg'],images\synthetic\3_003.jpg,1,0.0002662999995663995,1113.6984871000004,1113.6984871000004,0.012086100001397426,1.0,"[-0.48148148148148145, -0.012962962962962963]","[-0.27685185185185185, -0.4009259259259259]","[1, 1]","[0, 0]","[0, 0]","[2.148071699999491, 3.8965391000001546]",['nextButton'],870106,001,2023-06-06_17h09.51.007,scripted_test,2022.2.5,59.99077341928556,
72,0,72,0,,,,,,images\real\2_011.jpeg,images\synthetic\2_011.png,images\synthetic\2_011.png,People,1117.7292151000001,1117.7292151000001,0.12394140000105835,1117.7292151000001,1117.7292151000001,[0.4],[-0.11666666666666667],[1],[0],[0],[2.5574096999989706],['images\\synthetic\\2_011.png'],images\synthetic\2_011.png,1,2.5574096999989706,1120.315342400001,1120.315342400001,0.030552700000043842,2.0,"[-0.27037037037037037, -0.03796296296296296]","[-0.29444444444444445, -0.40555555555555556]","[1, 1]","[0, 0]","[0, 0]","[1.014086799999859, 1.847717599999669]",['nextButton'],870106,001,2023-06-06_17h09.51.007,scripted_test,2022.2.5,59.99077341928556,
73,0,73,0,,,,,,images\real\6_001.jpeg,images\synthetic\6_001.png,images\synthetic\6_001.png,Food,1122.2387360000012,1122.2387360000012,0.06547750000027008,1122.2387360000012,1122.2387360000012,[0.39537037037037037],[-0.1175925925925926],[1],[0],[0],[1.9145411999998032],['images\\synthetic\\6_001.png'],images\synthetic\6_001.png,1,1.9145411999998032,1124.2057636000009,1124.2057636000009,0.05505989999983285,1.0,"[-0.487962962962963, 0.006481481481481481]","[-0.30277777777777776, -0.40555555555555556]","[1, 1]","[0, 0]","[0, 0]","[1.3727737000008347, 2.5266859000003024]",['nextButton'],870106,001,2023-06-06_17h09.51.007,scripted_test,2022.2.5,59.99077341928556,
74,0,74,0,,,,,,images\synthetic\5_009.jpg,images\real\5_009.jpeg,images\synthetic\5_009.jpg,Houses (Interior),1126.8315706000012,1126.8315706000012,0.08945260000109556,1126.8315706000012,1126.8315706000012,[-0.32592592592592595],[-0.13240740740740742],[1],[0],[0],[4.091740200001368],['images\\synthetic\\5_009.jpg'],images\synthetic\5_009.jpg,1,4.091740200001368,1130.9482058000012,1130.9482058000012,0.027474500000607804,4.0,"[0.26851851851851855, 0.26666666666666666, -0.04722222222222222]","[-0.262037037037037, -0.29814814814814816, -0.39537037037037037]","[1, 1, 1]","[0, 0, 0]","[0, 0, 0]","[6.3509188999996695, 6.8950250999987475, 7.6446517999993375]",['nextButton'],870106,001,2023-06-06_17h09.51.007,scripted_test,2022.2.5,59.99077341928556,
75,0,75,0,,,,,,images\synthetic\3_004.jpg,images\real\3_004.jpeg,images\synthetic\3_004.jpg,Cars,1138.6314532000015,1138.6314532000015,0.0289031000011164,1138.6314532000015,1138.6314532000015,"[-0.04722222222222222, -0.3296296296296296]","[-0.39537037037037037, -0.005555555555555556]","[1, 1]","[0, 0]","[0, 0]","[0.00028110000130254775, 10.202240500000698]",['images\\synthetic\\3_004.jpg'],images\synthetic\3_004.jpg,1,0.00028110000130254775,1148.8394192000014,1148.8394192000014,0.00618170000052487,3.0,"[0.019444444444444445, 0.000925925925925926]","[-0.2740740740740741, -0.40925925925925927]","[1, 1]","[0, 0]","[0, 0]","[5.770334400000138, 8.358786100001453]",['nextButton'],870106,001,2023-06-06_17h09.51.007,scripted_test,2022.2.5,59.99077341928556,
76,0,76,0,,,,,,images\synthetic\8_003.png,images\real\8_003.jpeg,images\synthetic\8_003.png,Landscapes,1157.2307012,1157.2307012,0.029182600001149694,1157.2307012,1157.2307012,"[0.000925925925925926, -0.3574074074074074]","[-0.40925925925925927, -0.13148148148148148]","[1, 1]","[0, 0]","[0, 0]","[0.00040810000064084306, 4.2316451000006055]",['images\\synthetic\\8_003.png'],images\synthetic\8_003.png,1,0.00040810000064084306,1161.4721588000011,1161.4721588000011,0.009561100001519662,3.0,"[0.016666666666666666, 0.007407407407407408]","[-0.2833333333333333, -0.3907407407407407]","[1, 1]","[0, 0]","[0, 0]","[1.5330635999998776, 2.167024300000776]",['nextButton'],870106,001,2023-06-06_17h09.51.007,scripted_test,2022.2.5,59.99077341928556,
77,0,77,0,,,,,,images\synthetic\3_006.jpg,images\real\3_006.jpeg,images\synthetic\3_006.jpg,Cars,1163.7384406,1163.7384406,0.09040220000133559,1163.7384406,1163.7384406,[-0.23703703703703705],[-0.037037037037037035],[1],[0],[0],[6.657897999999477],['images\\synthetic\\3_006.jpg'],images\synthetic\3_006.jpg,1,6.657897999999477,1170.4013407000002,1170.4013407000002,0.005677200000718585,4.0,"[0.25555555555555554, 0.011111111111111112]","[-0.29907407407407405, -0.4027777777777778]","[1, 1]","[0, 0]","[0, 0]","[10.286383199998454, 12.169758000000002]",['nextButton'],870106,001,2023-06-06_17h09.51.007,scripted_test,2022.2.5,59.99077341928556,
78,0,78,0,,,,,,images\real\6_012.jpg,images\synthetic\6_012.png,images\synthetic\6_012.png,Food,1182.7287215000015,1182.7287215000015,0.14641389999997045,1182.7287215000015,1182.7287215000015,[0.32222222222222224],[0.001851851851851852],[1],[0],[0],[25.580267399998775],['images\\synthetic\\6_012.png'],images\synthetic\6_012.png,1,25.580267399998775,1208.3674728000005,1208.3674728000005,0.06026919999931124,4.0,"[0.5055555555555555, 0.26481481481481484, -0.037037037037037035]","[-0.2796296296296296, -0.30092592592592593, -0.3972222222222222]","[1, 1, 1]","[0, 0, 0]","[0, 0, 0]","[2.617572099999961, 15.88313769999877, 17.932178799999747]",['nextButton'],870106,001,2023-06-06_17h09.51.007,scripted_test,2022.2.5,59.99077341928556,
79,0,79,0,,,,,,images\real\10_012.jpg,images\synthetic\10_012.png,images\synthetic\10_012.png,Groups of people,1226.4030120000007,1226.4030120000007,0.09601579999980459,1226.4030120000007,1226.4030120000007,[0.4064814814814815],[0.028703703703703703],[1],[0],[0],[2.118423100000655],['images\\synthetic\\10_012.png'],images\synthetic\10_012.png,1,2.118423100000655,1228.5573577000014,1228.5573577000014,0.03831170000012207,2.0,"[-0.2212962962962963, 0.002777777777777778]","[-0.2935185185185185, -0.42685185185185187]","[1, 1]","[0, 0]","[0, 0]","[1.0059951000002911, 1.9238451000001078]",['nextButton'],870106,001,2023-06-06_17h09.51.007,scripted_test,2022.2.5,59.99077341928556,
80,0,80,0,,,,,,images\real\8_004.jpeg,images\synthetic\8_004.png,images\synthetic\8_004.png,Landscapes,1230.5360426000007,1230.5360426000007,0.04855679999855056,1230.5360426000007,1230.5360426000007,[-0.28888888888888886],[-0.15925925925925927],[1],[0],[0],[4.180700299999444],['images\\real\\8_004.jpeg'],images\real\8_004.jpeg,0,4.180700299999444,1234.7402562000007,1234.7402562000007,0.020276600000215694,4.0,"[0.26666666666666666, 0.017592592592592594, 0.2712962962962963, -0.02962962962962963]","[-0.29444444444444445, -0.2972222222222222, -0.2953703703703704, -0.39351851851851855]","[1, 1, 1, 1]","[0, 0, 0, 0]","[0, 0, 0, 0]","[0.9901634999987436, 1.858031799998571, 3.273622199998499, 4.376054499998645]",['nextButton'],870106,001,2023-06-06_17h09.51.007,scripted_test,2022.2.5,59.99077341928556,
81,0,81,0,,,,,,images\real\6_009.jpeg,images\synthetic\6_009.png,images\synthetic\6_009.png,Food,1239.2589754,1239.2589754,0.1340925000004063,1239.2589754,1239.2589754,[0.44074074074074077],[-0.13240740740740742],[1],[0],[0],[4.47903260000021],['images\\synthetic\\6_009.png'],images\synthetic\6_009.png,1,4.47903260000021,1243.7902731000013,1243.7902731000013,0.053038699999888195,3.0,"[-0.001851851851851852, 0.02962962962962963]","[-0.27314814814814814, -0.4046296296296296]","[1, 1]","[0, 0]","[0, 0]","[2.0562125999986165, 2.5890893999985565]",['nextButton'],870106,001,2023-06-06_17h09.51.007,scripted_test,2022.2.5,59.99077341928556,
82,0,82,0,,,,,,images\synthetic\2_003.png,images\real\2_003.png,images\synthetic\2_003.png,People,1246.4061778000014,1246.4061778000014,0.019500200000038603,1246.4061778000014,1246.4061778000014,"[0.02962962962962963, -0.3148148148148148]","[-0.40555555555555556, -0.12129629629629629]","[1, 1]","[0, 0]","[0, 0]","[0.00038239999958022963, 2.060183600000528]",['images\\synthetic\\2_003.png'],images\synthetic\2_003.png,1,0.00038239999958022963,1248.4773032000012,1248.4773032000012,0.010409399999844027,1.0,"[-0.48518518518518516, 0.024074074074074074]","[-0.29259259259259257, -0.41759259259259257]","[1, 1]","[0, 0]","[0, 0]","[0.6372633000009955, 2.118714000000182]",['nextButton'],870106,001,2023-06-06_17h09.51.007,scripted_test,2022.2.5,59.99077341928556,
83,0,83,0,,,,,,images\real\1_005.jpeg,images\synthetic\1_005.png,images\synthetic\1_005.png,Animals,1250.7021786000005,1250.7021786000005,0.10010660000079952,1250.7021786000005,1250.7021786000005,[0.27037037037037037],[-0.037037037037037035],[1],[0],[0],[6.113293899999917],['images\\synthetic\\1_005.png'],images\synthetic\1_005.png,1,6.113293899999917,1256.8721268000008,1256.8721268000008,0.05547379999916302,3.0,"[-0.017592592592592594, 0.006481481481481481]","[-0.3055555555555556, -0.4074074074074074]","[1, 1]","[0, 0]","[0, 0]","[2.056360399999903, 2.5885675999998057]",['nextButton'],870106,001,2023-06-06_17h09.51.007,scripted_test,2022.2.5,59.99077341928556,
84,0,84,0,,,,,,images\synthetic\1_003.png,images\real\1_003.jpg,images\synthetic\1_003.png,Animals,1259.6020692000002,1259.6020692000002,0.12892529999953695,1259.6020692000002,1259.6020692000002,[-0.49907407407407406],[-0.1175925925925926],[1],[0],[0],[5.422364399999424],['images\\synthetic\\1_003.png'],images\synthetic\1_003.png,1,5.422364399999424,1265.0618252000004,1265.0618252000004,0.042182799999864073,4.0,"[0.26666666666666666, 0.017592592592592594]","[-0.30648148148148147, -0.42592592592592593]","[1, 1]","[0, 0]","[0, 0]","[1.6133853000010276, 2.182741500000702]",['nextButton'],870106,001,2023-06-06_17h09.51.007,scripted_test,2022.2.5,59.99077341928556,
85,0,85,0,,,,,,images\real\4_004.jpg,images\synthetic\4_004.jpg,images\synthetic\4_004.jpg,Houses (Exterior),1267.2786915000015,1267.2786915000015,0.025292299998909584,1267.2786915000015,1267.2786915000015,"[0.017592592592592594, 0.37407407407407406]","[-0.42592592592592593, -0.1962962962962963]","[1, 1]","[0, 0]","[0, 0]","[0.0002527999986341456, 8.704108999998425]",['images\\synthetic\\4_004.jpg'],images\synthetic\4_004.jpg,1,0.0002527999986341456,1275.9876318000006,1275.9876318000006,0.006061800000679796,4.0,"[0.2777777777777778, -0.03425925925925926]","[-0.29444444444444445, -0.3888888888888889]","[1, 1]","[0, 0]","[0, 0]","[4.753867299999911, 5.474414199999956]",['nextButton'],870106,001,2023-06-06_17h09.51.007,scripted_test,2022.2.5,59.99077341928556,
86,0,86,0,,,,,,images\real\4_002.jpg,images\synthetic\4_002.png,images\synthetic\4_002.png,Houses (Exterior),1281.5887583000003,1281.5887583000003,0.11951829999998154,1281.5887583000003,1281.5887583000003,[0.45740740740740743],[-0.1685185185185185],[1],[0],[0],[8.839918899999248],['images\\synthetic\\4_002.png'],images\synthetic\4_002.png,1,8.839918899999248,1290.4597567,1290.4597567,0.03149110000049404,3.0,"[-0.001851851851851852, -0.017592592592592594]","[-0.27685185185185185, -0.4009259259259259]","[1, 1]","[0, 0]","[0, 0]","[7.313126499999271, 8.994946599999821]",['nextButton'],870106,001,2023-06-06_17h09.51.007,scripted_test,2022.2.5,59.99077341928556,
87,0,87,0,,,,,,images\synthetic\9_008.png,images\real\9_008.jpeg,images\synthetic\9_008.png,Sports,1299.537279100001,1299.537279100001,0.07113980000031006,1299.537279100001,1299.537279100001,"[-0.017592592592592594, -0.2638888888888889]","[-0.4009259259259259, -0.16111111111111112]","[1, 1]","[0, 0]","[0, 0]","[0.0003218000001652399, 2.18327649999992]",['images\\synthetic\\9_008.png'],images\synthetic\9_008.png,1,0.0003218000001652399,1301.7572947000008,1301.7572947000008,0.0407245000005787,2.0,"[-0.4888888888888889, -0.2222222222222222, -0.008333333333333333]","[-0.2759259259259259, -0.2833333333333333, -0.3861111111111111]","[1, 1, 1]","[0, 0, 0]","[0, 0, 0]","[0.802136000000246, 4.246125400000892, 16.494935700000497]",['nextButton'],870106,001,2023-06-06_17h09.51.007,scripted_test,2022.2.5,59.99077341928556,
88,0,88,0,,,,,,images\real\9_012.jpeg,images\synthetic\9_012.png,images\synthetic\9_012.png,Sports,1318.3364798000002,1318.3364798000002,0.0759888000011415,1318.3364798000002,1318.3364798000002,"[-0.008333333333333333, 0.38333333333333336]","[-0.3861111111111111, -0.07962962962962963]","[1, 1]","[0, 0]","[0, 0]","[0.00038580000000365544, 8.006485899999461]",['images\\synthetic\\9_012.png'],images\synthetic\9_012.png,1,0.00038580000000365544,1326.3874815,1326.3874815,0.04567789999964589,5.0,"[0.47314814814814815, -0.06574074074074074]","[-0.2833333333333333, -0.40555555555555556]","[1, 1]","[0, 0]","[0, 0]","[4.063120700000582, 4.980215800000224]",['nextButton'],870106,001,2023-06-06_17h09.51.007,scripted_test,2022.2.5,59.99077341928556,
89,0,89,0,,,,,,images\synthetic\4_009.png,images\real\4_009.png,images\synthetic\4_009.png,Houses (Exterior),1331.4485943,1331.4485943,0.06937399999878835,1331.4485943,1331.4485943,"[-0.06574074074074074, -0.4638888888888889]","[-0.40555555555555556, -0.14166666666666666]","[1, 1]","[0, 0]","[0, 0]","[0.0003454999987297924, 9.794019499999195]",['images\\synthetic\\4_009.png'],images\synthetic\4_009.png,1,0.0003454999987297924,1341.261096100001,1341.261096100001,0.02150179999989632,5.0,"[0.49074074074074076, 0.049074074074074076]","[-0.3111111111111111, -0.4064814814814815]","[1, 1]","[0, 0]","[0, 0]","[0.7889912999999069, 1.4228542000000743]",['nextButton'],870106,001,2023-06-06_17h09.51.007,scripted_test,2022.2.5,59.99077341928556,
90,0,90,0,,,,,,images\synthetic\10_006.png,images\real\10_006.jpeg,images\synthetic\10_006.png,Groups of people,1342.8374479000013,1342.8374479000013,0.14385179999953834,1342.8374479000013,1342.8374479000013,[0.4425925925925926],[-0.03611111111111111],[1],[0],[0],[5.85428150000007],['images\\real\\10_006.jpeg'],images\real\10_006.jpeg,0,5.85428150000007,1348.747394,1348.747394,0.054437299999335664,4.0,"[0.2638888888888889, 0.26666666666666666, 0.028703703703703703]","[-0.2722222222222222, -0.30648148148148147, -0.4185185185185185]","[1, 1, 1]","[0, 0, 0]","[0, 0, 0]","[1.1072475999990274, 1.5708055999984936, 2.7375897000001714]",['nextButton'],870106,001,2023-06-06_17h09.51.007,scripted_test,2022.2.5,59.99077341928556,
91,0,91,0,,,,,,images\synthetic\5_008.jpg,images\real\5_008.jpeg,images\synthetic\5_008.jpg,Houses (Interior),1351.5703299000015,1351.5703299000015,0.08216589999938151,1351.5703299000015,1351.5703299000015,[-0.35648148148148145],[0.06759259259259259],[1],[0],[0],[8.848876300000484],['images\\synthetic\\5_008.jpg'],images\synthetic\5_008.jpg,1,8.848876300000484,1360.4399526000016,1360.4399526000016,0.018294699999387376,4.0,"[0.262037037037037, 0.1287037037037037, 0.07037037037037037]","[-0.2814814814814815, -0.4027777777777778, -0.4111111111111111]","[1, 1, 1]","[0, 0, 0]","[0, 0, 0]","[1.1757365000012214, 1.92690660000153, 2.2925721000010526]",['nextButton'],870106,001,2023-06-06_17h09.51.007,scripted_test,2022.2.5,59.99077341928556,
92,0,92,0,,,,,,images\real\6_011.jpeg,images\synthetic\6_011.png,images\synthetic\6_011.png,Food,1362.8289034000009,1362.8289034000009,0.08762399999977788,1362.8289034000009,1362.8289034000009,[0.26851851851851855],[-0.12314814814814815],[1],[0],[0],[4.926006600000619],['images\\synthetic\\6_011.png'],images\synthetic\6_011.png,1,4.926006600000619,1367.7825878000003,1367.7825878000003,0.031129599999985658,3.0,"[0.024074074074074074, 0.018518518518518517]","[-0.3138888888888889, -0.4046296296296296]","[1, 1]","[0, 0]","[0, 0]","[4.779604600000312, 7.030712300000232]",['nextButton'],870106,001,2023-06-06_17h09.51.007,scripted_test,2022.2.5,59.99077341928556,
93,0,93,0,,,,,,images\synthetic\5_011.png,images\real\5_011.jpeg,images\synthetic\5_011.png,Houses (Interior),1374.9917744000013,1374.9917744000013,0.16802309999911813,1374.9917744000013,1374.9917744000013,[-0.3111111111111111],[-0.1388888888888889],[1],[0],[0],[10.664451099999496],['images\\synthetic\\5_011.png'],images\synthetic\5_011.png,1,10.664451099999496,1385.7448005000006,1385.7448005000006,0.08996450000086043,5.0,"[0.4962962962962963, 0.027777777777777776]","[-0.3138888888888889, -0.3824074074074074]","[1, 1]","[0, 0]","[0, 0]","[0.85189790000004, 1.4169313000002148]",['nextButton'],870106,001,2023-06-06_17h09.51.007,scripted_test,2022.2.5,59.99077341928556,
94,0,94,0,,,,,,images\real\7_012.jpg,images\synthetic\7_012.png,images\synthetic\7_012.png,Objects,1387.3226078000007,1387.3226078000007,0.14878999999928055,1387.3226078000007,1387.3226078000007,[0.37222222222222223],[-0.18703703703703703],[1],[0],[0],[2.1843518000005133],['images\\synthetic\\7_012.png'],images\synthetic\7_012.png,1,2.1843518000005133,1389.5433204,1389.5433204,0.03854789999968489,3.0,"[-0.008333333333333333, 0.06574074074074074]","[-0.30277777777777776, -0.39814814814814814]","[1, 1]","[0, 0]","[0, 0]","[0.8379088000001502, 1.6372843000008288]",['nextButton'],870106,001,2023-06-06_17h09.51.007,scripted_test,2022.2.5,59.99077341928556,
95,0,95,0,,,,,,images\real\9_009.jpg,images\synthetic\9_009.png,images\synthetic\9_009.png,Sports,1391.257589500001,1391.257589500001,0.07281700000021374,1391.257589500001,1391.257589500001,[0.34444444444444444],[-0.09537037037037037],[1],[0],[0],[1.2909947999996803],['images\\synthetic\\9_009.png'],images\synthetic\9_009.png,1,1.2909947999996803,1392.5859139000004,1392.5859139000004,0.03880850000132341,2.0,"[-0.262037037037037, 0.05277777777777778]","[-0.28888888888888886, -0.3962962962962963]","[1, 1]","[0, 0]","[0, 0]","[1.1226399000006495, 2.3244149000001926]",['nextButton'],870106,001,2023-06-06_17h09.51.007,scripted_test,2022.2.5,59.99077341928556,
96,0,96,0,,,,,,images\real\9_010.jpg,images\synthetic\9_010.png,images\synthetic\9_010.png,Sports,1395.0120587000001,1395.0120587000001,0.08892980000018724,1395.0120587000001,1395.0120587000001,[0.33425925925925926],[-0.1388888888888889],[1],[0],[0],[9.13828900000044],['images\\synthetic\\9_010.png'],images\synthetic\9_010.png,1,9.13828900000044,1404.191575500001,1404.191575500001,0.044350199999826145,5.0,"[0.5027777777777778, 0.020370370370370372]","[-0.2935185185185185, -0.37962962962962965]","[1, 1]","[0, 0]","[0, 0]","[6.55018150000069, 7.116766900000584]",['nextButton'],870106,001,2023-06-06_17h09.51.007,scripted_test,2022.2.5,59.99077341928556,
97,0,97,0,,,,,,images\real\8_005.jpeg,images\synthetic\8_005.png,images\synthetic\8_005.png,Landscapes,1411.4081565000015,1411.4081565000015,0.09188849999918602,1411.4081565000015,1411.4081565000015,"[0.020370370370370372, 0.4546296296296296]","[-0.37962962962962965, -0.032407407407407406]","[1, 1]","[0, 0]","[0, 0]","[0.0003397999989829259, 7.444045199999891]",['images\\synthetic\\8_005.png'],images\synthetic\8_005.png,1,0.0003397999989829259,1418.868958500001,1418.868958500001,0.015620699999999488,4.0,"[0.25, -0.062037037037037036]","[-0.2740740740740741, -0.4027777777777778]","[1, 1]","[0, 0]","[0, 0]","[1.7893567999999505, 3.2220746999992116]",['nextButton'],870106,001,2023-06-06_17h09.51.007,scripted_test,2022.2.5,59.99077341928556,
98,0,98,0,,,,,,images\real\9_006.jpeg,images\synthetic\9_006.png,images\synthetic\9_006.png,Sports,1422.1665031000011,1422.1665031000011,0.07077100000060454,1422.1665031000011,1422.1665031000011,"[-0.062037037037037036, 0.4027777777777778]","[-0.4027777777777778, -0.17592592592592593]","[1, 1]","[0, 0]","[0, 0]","[0.0003591999993659556, 4.6095631000007415]",['images\\synthetic\\9_006.png'],images\synthetic\9_006.png,1,0.0003591999993659556,1426.7995617000015,1426.7995617000015,0.02333319999888772,3.0,"[0.000925925925925926, -0.03611111111111111]","[-0.2898148148148148, -0.37222222222222223]","[1, 1]","[0, 0]","[0, 0]","[1.2217516000000614, 1.6556709999986197]",['nextButton'],870106,001,2023-06-06_17h09.51.007,scripted_test,2022.2.5,59.99077341928556,
99,0,99,0,,,,,,images\synthetic\10_011.png,images\real\10_011.jpeg,images\synthetic\10_011.png,Groups of people,1428.5894210000006,1428.5894210000006,0.12230060000001686,1428.5894210000006,1428.5894210000006,[-0.36203703703703705],[-0.041666666666666664],[1],[0],[0],[4.155702000000019],['images\\synthetic\\10_011.png'],images\synthetic\10_011.png,1,4.155702000000019,1432.7840598000003,1432.7840598000003,0.040007600000535604,2.0,"[-0.2212962962962963, -0.020370370370370372]","[-0.2861111111111111, -0.412962962962963]","[1, 1]","[0, 0]","[0, 0]","[0.7388473000009981, 1.2880390000009356]",['nextButton'],870106,001,2023-06-06_17h09.51.007,scripted_test,2022.2.5,59.99077341928556,
100,0,100,0,,,,,,images\real\10_008.jpeg,images\synthetic\10_008.png,images\synthetic\10_008.png,Groups of people,1434.1648611,1434.1648611,0.083384899999146,1434.1648611,1434.1648611,[-0.37222222222222223],[0.017592592592592594],[1],[0],[0],[6.829532699999618],['images\\real\\10_008.jpeg'],images\real\10_008.jpeg,0,6.829532699999618,1441.0206426000004,1441.0206426000004,0.028077099999791244,5.0,"[0.4962962962962963, -0.009259259259259259]","[-0.2953703703703704, -0.38333333333333336]","[1, 1]","[0, 0]","[0, 0]","[0.8178616000004695, 1.4668172000001505]",['nextButton'],870106,001,2023-06-06_17h09.51.007,scripted_test,2022.2.5,59.99077341928556,
101,0,101,0,,,,,,images\synthetic\8_007.png,images\real\8_007.jpeg,images\synthetic\8_007.png,Landscapes,1442.5494769000015,1442.5494769000015,0.0536234000010154,1442.5494769000015,1442.5494769000015,"[-0.009259259259259259, -0.40555555555555556]","[-0.38333333333333336, -0.05]","[1, 1]","[0, 0]","[0, 0]","[0.0002691000008780975, 4.994724500000302]",['images\\synthetic\\8_007.png'],images\synthetic\8_007.png,1,0.0002691000008780975,1447.5876085,1447.5876085,0.044297000000369735,3.0,"[-0.26666666666666666, 0.007407407407407408, 0.0]","[-0.3074074074074074, -0.3, -0.3888888888888889]","[1, 1, 1]","[0, 0, 0]","[0, 0, 0]","[2.280799100000877, 3.635939800000415, 4.249136300000828]",['nextButton'],870106,001,2023-06-06_17h09.51.007,scripted_test,2022.2.5,59.99077341928556,
102,0,102,0,,,,,,images\real\3_012.jpeg,images\synthetic\3_012.png,images\synthetic\3_012.png,Cars,1451.9132000000009,1451.9132000000009,0.06783010000071954,1451.9132000000009,1451.9132000000009,"[0.0, 0.4564814814814815]","[-0.3888888888888889, -0.040740740740740744]","[1, 1]","[0, 0]","[0, 0]","[0.0010443999999552034, 2.1462961999986874]",['images\\synthetic\\3_012.png'],images\synthetic\3_012.png,1,0.0010443999999552034,1454.0951478000006,1454.0951478000006,0.036886100000629085,4.0,"[0.2361111111111111, 0.004629629629629629]","[-0.30462962962962964, -0.41759259259259257]","[1, 1]","[0, 0]","[0, 0]","[1.95624990000033, 4.808493000000453]",['nextButton'],870106,001,2023-06-06_17h09.51.007,scripted_test,2022.2.5,59.99077341928556,
103,0,103,0,,,,,,images\real\10_007.jpg,images\synthetic\10_007.png,images\synthetic\10_007.png,Groups of people,1458.9703069000007,1458.9703069000007,0.05892839999978605,1458.9703069000007,1458.9703069000007,[0.42962962962962964],[-0.15555555555555556],[1],[0],[0],[2.5357863000008365],['images\\synthetic\\10_007.png'],images\synthetic\10_007.png,1,2.5357863000008365,1461.5398139000008,1461.5398139000008,0.03341780000118888,2.0,"[-0.24537037037037038, 0.0]","[-0.2898148148148148, -0.3907407407407407]","[1, 1]","[0, 0]","[0, 0]","[1.1608364000003348, 2.8766042000006564]",['nextButton'],870106,001,2023-06-06_17h09.51.007,scripted_test,2022.2.5,59.99077341928556,
104,0,104,0,,,,,,images\synthetic\9_002.png,images\real\9_002.jpg,images\synthetic\9_002.png,Sports,1464.500605700001,1464.500605700001,0.07553070000176376,1464.500605700001,1464.500605700001,"[0.0, -0.3509259259259259]","[-0.3907407407407407, 0.06666666666666667]","[1, 1]","[0, 0]","[0, 0]","[0.00035519999983080197, 6.024071600000752]",['images\\synthetic\\9_002.png'],images\synthetic\9_002.png,1,0.00035519999983080197,1470.5800900000013,1470.5800900000013,0.05366099999992002,3.0,"[0.018518518518518517, 0.025925925925925925]","[-0.2851851851851852, -0.4074074074074074]","[1, 1]","[0, 0]","[0, 0]","[8.501552300000185, 9.351766699999644]",['nextButton'],870106,001,2023-06-06_17h09.51.007,scripted_test,2022.2.5,59.99077341928556,
105,0,105,0,,,,,,images\synthetic\2_005.png,images\real\2_005.jpg,images\synthetic\2_005.png,People,1479.954099300001,1479.954099300001,0.01680099999975937,1479.954099300001,1479.954099300001,"[0.025925925925925925, -0.24722222222222223]","[-0.4074074074074074, -0.18703703703703703]","[1, 1]","[0, 0]","[0, 0]","[0.00027150000096298754, 2.7483469000017067]",['images\\synthetic\\2_005.png'],images\synthetic\2_005.png,1,0.00027150000096298754,1482.7165522000014,1482.7165522000014,0.012606100000994047,2.0,"[-0.25555555555555554, -0.01574074074074074]","[-0.3148148148148148, -0.39444444444444443]","[1, 1]","[0, 0]","[0, 0]","[1.3477803999994649, 1.916687799999636]",['nextButton'],870106,001,2023-06-06_17h09.51.007,scripted_test,2022.2.5,59.99077341928556,
106,0,106,0,,,,,,images\synthetic\6_008.png,images\real\6_008.jpeg,images\synthetic\6_008.png,Food,1484.7025236000009,1484.7025236000009,0.06333699999959208,1484.7025236000009,1484.7025236000009,"[-0.01574074074074074, -0.43703703703703706]","[-0.39444444444444443, -0.15648148148148147]","[1, 1]","[0, 0]","[0, 0]","[0.00035120000029564835, 4.5814900000004855]",['images\\synthetic\\6_008.png'],images\synthetic\6_008.png,1,0.00035120000029564835,1489.3251272000016,1489.3251272000016,0.03966699999909906,4.0,"[0.24351851851851852, 0.024074074074074074]","[-0.2833333333333333, -0.4046296296296296]","[1, 1]","[0, 0]","[0, 0]","[0.9886762999994971, 1.5712906999997358]",['nextButton'],870106,001,2023-06-06_17h09.51.007,scripted_test,2022.2.5,59.99077341928556,
107,0,107,0,,,,,,images\real\2_012.jpeg,images\synthetic\2_012.png,images\synthetic\2_012.png,People,1490.9987568000015,1490.9987568000015,0.0940630000004603,1490.9987568000015,1490.9987568000015,[0.4703703703703704],[-0.0712962962962963],[1],[0],[0],[4.787723999999798],['images\\synthetic\\2_012.png'],images\synthetic\2_012.png,1,4.787723999999798,1495.8151411000017,1495.8151411000017,0.02875549999953364,4.0,"[0.26944444444444443, 0.011111111111111112]","[-0.2777777777777778, -0.38425925925925924]","[1, 1]","[0, 0]","[0, 0]","[1.0809055999998236, 3.3471138999993855]",['nextButton'],870106,001,2023-06-06_17h09.51.007,scripted_test,2022.2.5,59.99077341928556,
108,0,108,0,,,,,,images\real\4_005.jpg,images\synthetic\4_005.jpg,images\synthetic\4_005.jpg,Houses (Exterior),1499.2033041000013,1499.2033041000013,0.03301429999919492,1499.2033041000013,1499.2033041000013,"[0.011111111111111112, -0.4981481481481482]","[-0.38425925925925924, -0.1398148148148148]","[1, 1]","[0, 0]","[0, 0]","[0.0003481999992800411, 6.616051099999822]",['images\\real\\4_005.jpg'],images\real\4_005.jpg,0,0.0003481999992800411,1505.8474071,1505.8474071,0.02819909999925585,3.0,"[0.25277777777777777, 0.010185185185185186, 0.008333333333333333, -0.008333333333333333]","[-0.3111111111111111, -0.2722222222222222, -0.29907407407407405, -0.3787037037037037]","[1, 1, 1, 1]","[0, 0, 0, 0]","[0, 0, 0, 0]","[1.1641094000005978, 4.234779999998864, 5.9635278999994625, 6.263457999999446]",['nextButton'],870106,001,2023-06-06_17h09.51.007,scripted_test,2022.2.5,59.99077341928556,
109,0,109,0,,,,,,images\synthetic\7_004.png,images\real\7_004.jpg,images\synthetic\7_004.png,Objects,1512.1591554000006,1512.1591554000006,0.043261700000584824,1512.1591554000006,1512.1591554000006,"[-0.008333333333333333, 0.37592592592592594]","[-0.3787037037037037, -0.12407407407407407]","[1, 1]","[0, 0]","[0, 0]","[0.0003754999997909181, 3.0559701999991375]",['images\\real\\7_004.jpg'],images\real\7_004.jpg,0,0.0003754999997909181,1515.232951,1515.232951,0.016604399999778252,4.0,"[0.26666666666666666, 0.05092592592592592]","[-0.31851851851851853, -0.3972222222222222]","[1, 1]","[0, 0]","[0, 0]","[1.9769496000008075, 2.5428689000000304]",['nextButton'],870106,001,2023-06-06_17h09.51.007,scripted_test,2022.2.5,59.99077341928556,
110,0,110,0,,,,,,images\real\5_006.jpg,images\synthetic\5_006.jpg,images\synthetic\5_006.jpg,Houses (Interior),1517.8162834000013,1517.8162834000013,0.03192810000109603,1517.8162834000013,1517.8162834000013,"[0.05092592592592592, -0.45185185185185184]","[-0.3972222222222222, -0.08703703703703704]","[1, 1]","[0, 0]","[0, 0]","[0.000360099998943042, 6.53472309999961]",['images\\real\\5_006.jpg'],images\real\5_006.jpg,0,0.000360099998943042,1524.3751525000007,1524.3751525000007,0.023772399999870686,5.0,"[0.462037037037037, -0.058333333333333334]","[-0.29444444444444445, -0.42592592592592593]","[1, 1]","[0, 0]","[0, 0]","[2.0853529000014532, 3.273318700001255]",['nextButton'],870106,001,2023-06-06_17h09.51.007,scripted_test,2022.2.5,59.99077341928556,
111,0,111,0,,,,,,images\real\6_003.jpg,images\synthetic\6_003.png,images\synthetic\6_003.png,Food,1527.7805593000012,1527.7805593000012,0.12484680000125081,1527.7805593000012,1527.7805593000012,[0.3037037037037037],[-0.12037037037037036],[1],[0],[0],[2.252142499999536],['images\\synthetic\\6_003.png'],images\synthetic\6_003.png,1,2.252142499999536,1530.07064,1530.07064,0.03729910000038217,4.0,"[0.23703703703703705, 0.014814814814814815]","[-0.30648148148148147, -0.40370370370370373]","[1, 1]","[0, 0]","[0, 0]","[1.408360299999913, 2.1879192999986117]",['nextButton'],870106,001,2023-06-06_17h09.51.007,scripted_test,2022.2.5,59.99077341928556,
112,0,112,0,,,,,,images\synthetic\10_003.jpg,images\real\10_003.jpg,images\synthetic\10_003.jpg,Groups of people,1532.2875416000006,1532.2875416000006,0.020447599999897648,1532.2875416000006,1532.2875416000006,"[0.014814814814814815, 0.48055555555555557]","[-0.40370370370370373, 0.1648148148148148]","[1, 1]","[0, 0]","[0, 0]","[0.00026669999897421803, 23.595769100000325]",['images\\real\\10_003.jpg'],images\real\10_003.jpg,0,0.00026669999897421803,1555.9021857000007,1555.9021857000007,0.02034549999916635,5.0,"[0.4444444444444444, 0.016666666666666666]","[-0.28888888888888886, -0.3962962962962963]","[1, 1]","[0, 0]","[0, 0]","[1.4531018000016047, 2.318871500001478]",['nextButton'],870106,001,2023-06-06_17h09.51.007,scripted_test,2022.2.5,59.99077341928556,
113,0,113,0,,,,,,images\synthetic\10_002.jpg,images\real\10_002.jpeg,images\synthetic\10_002.jpg,Groups of people,1558.3547080000008,1558.3547080000008,0.12426910000067437,1558.3547080000008,1558.3547080000008,[-0.3787037037037037],[-0.12962962962962962],[1],[0],[0],[1.9067197000003944],['images\\synthetic\\10_002.jpg'],images\synthetic\10_002.jpg,1,1.9067197000003944,1560.2762427000016,1560.2762427000016,0.016423999999460648,1.0,"[-0.25462962962962965, -0.49907407407407406, 0.05555555555555555]","[-0.2814814814814815, -0.3055555555555556, -0.387037037037037]","[1, 1, 1]","[0, 0, 0]","[0, 0, 0]","[1.711384399999588, 5.060399599999073, 5.814338599999246]",['nextButton'],870106,001,2023-06-06_17h09.51.007,scripted_test,2022.2.5,59.99077341928556,
114,0,114,0,,,,,,images\real\3_008.jpeg,images\synthetic\3_008.jpg,images\synthetic\3_008.jpg,Cars,1566.1451386000008,1566.1451386000008,0.045922799999971176,1566.1451386000008,1566.1451386000008,"[0.05555555555555555, 0.3712962962962963]","[-0.387037037037037, -0.12962962962962962]","[1, 1]","[0, 0]","[0, 0]","[0.0003178999995725462, 2.6316657999996096]",['images\\synthetic\\3_008.jpg'],images\synthetic\3_008.jpg,1,0.0003178999995725462,1568.793015700001,1568.793015700001,0.018582900000183145,2.0,"[-0.24074074074074073, 0.001851851851851852]","[-0.3, -0.387037037037037]","[1, 1]","[0, 0]","[0, 0]","[0.8264683000015793, 1.4287495000007766]",['nextButton'],870106,001,2023-06-06_17h09.51.007,scripted_test,2022.2.5,59.99077341928556,
115,0,115,0,,,,,,images\synthetic\4_008.jpg,images\real\4_008.png,images\synthetic\4_008.jpg,Houses (Exterior),1570.342380600001,1570.342380600001,0.11018009999861533,1570.342380600001,1570.342380600001,[0.42407407407407405],[-0.07314814814814814],[1],[0],[0],[11.666578399999707],['images\\real\\4_008.png'],images\real\4_008.png,0,11.666578399999707,1582.1165547,1582.1165547,0.10565899999892281,5.0,"[0.5351851851851852, 0.003703703703703704]","[-0.29907407407407405, -0.4009259259259259]","[1, 1]","[0, 0]","[0, 0]","[1.4717123999998876, 3.42135270000108]",['nextButton'],870106,001,2023-06-06_17h09.51.007,scripted_test,2022.2.5,59.99077341928556,
,,,,,,,,,,,,,,,,,,,,,,,,,,,,,,,,,,,,,,,870106,001,2023-06-06_17h09.51.007,scripted_test,2022.2.5,59.99077341928556,
